"trial_type","trial_index","time_elapsed","internal_node_id","participant_id","rt","url","view_history","responses","stimulus","key_press","Name","config","type","prompt","step","max","start","on_load","data","min","labels","button_label","stimulus_duration","trial_duration","response_ends_trial","imageSelected","indexSelected","fixationTime","faceIdentity","array_length","array_values","meanVal","description","trial","color"
"pavlovia","0","2","0.0-0.0","gal","","","","","","","","","","","","","","","","","","","","","","","","","","","","","","",""
"external-html","1","4253","0.0-1.0","gal","4166","external_page.html","","","","","","","","","","","","","","","","","","","","","","","","","","","","",""
"instructions","2","21996","0.0-2.0","gal","17742.700000047684","","[{""page_index"":0,""viewing_time"":5910.200000047684},{""page_index"":1,""viewing_time"":7304},{""page_index"":2,""viewing_time"":1351.9000000953674},{""page_index"":3,""viewing_time"":3176.2000000476837}]","","","","","","","","","","","","","","","","","","","","","","","","","","","",""
"survey-text","3","29788","0.0-3.0","gal","7789.899999856949","","","{""Q0"":""gal""}","","","","","","","","","","","","","","","","","","","","","","","","","","",""
"instructions","4","31043","0.0-4.0","gal","1254.5","","[{""page_index"":0,""viewing_time"":1254.2999999523163}]","","","","","","","","","","","","","","","","","","","","","","","","","","","",""
"survey-text","5","36875","0.0-5.0","gal","5831","","","{""Q0"":""giraffe""}","","","","","","","","","","","","","","","","","","","","","","","","","","",""
"survey-text","6","40132","0.0-6.0-0.0","gal","3254.2000000476837","","","{""Q0"":""but""}","","","","","","","","","","","","","","","","","","","","","","","","","","",""
"html-keyboard-response","7","40546","0.0-7.0","gal","null","","","","<p style=""font-size: 48px;""> + </p>","null","fixation","","","","","","","","","","","","","","","","","","","","","","","",""
"html-keyboard-response","8","42052","0.0-8.0","gal","null","","","","<span class='grid'><div> </div> <div class='red' style='background-position:4300% 0%;margin-top:22px'></div> <div class='red' style='background-position:4700% 0%;margin-top:29px'></div> <div> </div> <div class='red' style='background-position:3800% 0%;margin-top:50px'></div> <div class='red' style='background-position:3900% 0%;margin-top:36px'></div> <div> </div> <div> </div> <div class='red' style='background-position:3600% 0%;margin-top:20px'></div> <div> </div> <div> </div> <div> </div> <div> </div> <div class='red' style='background-position:4200% 0%;margin-top:37px'></div> <div class='red' style='background-position:4600% 0%;margin-top:20px'></div> <div class='red' style='background-position:3500% 0%;margin-top:27px'></div> <div class='red' style='background-position:4800% 0%;margin-top:50px'></div> <div class='red' style='background-position:4400% 0%;margin-top:23px'></div> <div class='red' style='background-position:3400% 0%;margin-top:42px'></div></span>","null","stimulus","","","","","","","","","","","","","","","","","","","","","","","",""
"image-slider-response_noButton","9","54492","0.0-9.0","gal","12437","","","","img/red1.jpg,img/red2.jpg,img/red3.jpg,img/red4.jpg,img/red5.jpg,img/red6.jpg,img/red7.jpg,img/red8.jpg,img/red9.jpg,img/red10.jpg,img/red11.jpg,img/red12.jpg,img/red13.jpg,img/red14.jpg,img/red15.jpg,img/red16.jpg,img/red17.jpg,img/red18.jpg,img/red19.jpg,img/red20.jpg,img/red21.jpg,img/red22.jpg,img/red23.jpg,img/red24.jpg,img/red25.jpg,img/red26.jpg,img/red27.jpg,img/red28.jpg,img/red29.jpg,img/red30.jpg,img/red31.jpg,img/red32.jpg,img/red33.jpg,img/red34.jpg,img/red35.jpg,img/red36.jpg,img/red37.jpg,img/red38.jpg,img/red39.jpg,img/red40.jpg,img/red41.jpg,img/red42.jpg,img/red43.jpg,img/red44.jpg,img/red45.jpg,img/red46.jpg,img/red47.jpg,img/red48.jpg,img/red49.jpg,img/red50.jpg","","response","{""index"":0,""type"":""practice"",""color"":""red""}","image-slider-response_noButton","<p>how red was the stimulus in your opinion?</p>","1","50","0","function morphedScaleRed() {
    // defining a few helper functions
    function nrange(size, startAt = 0) {
      return [...Array(size).keys()].map(i => i + startAt);
    };
  
    function fillArray(value, len) {
      var arr = [];
      for (var i = 0; i < len; i++) {
        arr.push(value);
      }
      return arr;
    };
  
    function generateSlices(vWidth, nSlices) {
      var step = vWidth*0.6/(nSlices-2);
      var stepArray = fillArray(step,nSlices-2)
      stepArray.unshift(0.2*vWidth)
      stepArray.push(0.2*vWidth)
  
      var bounds = [];
      
      for (var i = 0; i < nSlices; i++) {
        if (i==0) {
          bounds.push([(i*stepArray[i]), (i*stepArray[i])+stepArray[i]])
        } else if (i>0 && i!=nSlices-1) {
          bounds.push([(i*stepArray[i]+0.2*vWidth), (i*stepArray[i])+stepArray[i]+0.2*vWidth])
        } else {
          bounds.push([(vWidth-0.2*vWidth), vWidth])  
        }
      };
      return bounds;
    };
    
    // start trial timer
    var startTime = (new Date()).getTime();
    // get trial data
    var trialData = jsPsych.currentTrial();
  
    // remove the picture scales and the slider
    $('.jspsych-image-slider-response_noButton-container').css(""visibility"", ""hidden"");
    $('img').remove();
    var imgScale = getScaleRed();
    
    // derive the letter of the image filenames
    var imgBase = imgScale[0].split('img/')[1].split('.jpg')[0].replace(/\d+/g, '');
    
    // split the number of the image filenames off from the rest of it
    var nScale = [];
    for (var i = 0; i < imgScale.length-1; i++) {
      var n = imgScale[i].split('img/')[1].split('.jpg')[0].split(imgBase)[1];
      nScale.push(n);
    };
    
    // calculate the element width, and slice it up into sections
    var vWidth = $(document).width();
    var nSlices = nScale.length;
    var slices = generateSlices(vWidth, nSlices);
  
    // setting up initial vertical line to start the mousemove functionality
    var vHeight = $(document).height()-8;
    var lineSlice = vWidth / 10;
    var vertLine = `<div style=""border-left:black;border-style:solid;margin-left:${lineSlice}px; height:${vHeight}px;width:0px;position:absolute;"" id=""vertLine""></div>`;
    var linePrompt = `<div id=""linePrompt""><div style=""font-size:50px;position:absolute;margin-left:${lineSlice*1.3}px;margin-top:${vHeight/2}px""></div><div style=""position:absolute;margin-left:${lineSlice*1.2}px;margin-top:${vHeight/2}px;z-index:5;"">Move mouse left of the line to begin</div></div>`;
    $("".jspsych-content-wrapper"").prepend(vertLine);
    $("".jspsych-content-wrapper"").prepend(linePrompt);
    
    // hide prompt until the trial is begun
    $('#jspsych-content > p').css(""visibility"", ""hidden"");
  
    // initialize the central image with the most neutral one (i.e. from
    // the middle of the scale) and set the image to be blurred
    var initialImage = imgScale[0];
    $('#jspsych-image-slider-response_noButton-stimulus').append(`<img src=""${initialImage}"" style=""filter:blur(4px);visibility:hidden;"" id=""changeable-image""/>`);
  
    // ADD VISUAL SCALE SHOWING MIN/MAX
    var scaleWidth = vWidth * 0.6;
    var scaleLeft = vWidth * 0.2;
    var scaleHtml = `
      <div id=""scale-container"" style=""position:absolute; bottom:120px; left:${scaleLeft}px; width:${scaleWidth}px; height:30px; background-color:rgba(220,220,220,0.7); border-radius:5px; display:none; z-index:10;"">
        <div style=""position:absolute; left:0px; width:2px; height:30px; background-color:black;""></div>
        <div style=""position:absolute; left:0px; top:32px; font-size:12px; color:black;"">Min (1)</div>
        <div style=""position:absolute; right:0px; width:2px; height:30px; background-color:black;""></div>
        <div style=""position:absolute; right:0px; top:32px; font-size:12px; color:black;"">Max (50)</div>
        <div id=""current-marker"" style=""position:absolute; left:0px; width:2px; height:30px; background-color:red; display:none;""></div>
      </div>
    `;
    $("".jspsych-content-wrapper"").append(scaleHtml);
  
    // workaround with a global variable
    window.__imageMouseOver = {
      lineSlice: lineSlice,
      slices: slices,
      nScale: nScale,
      imgBase: imgBase,
      startTime: startTime,
      trialData: trialData,
      sliceSelected: 0,
    };
    var __listenerBools = {};
  
    // define mousemove event listener that changes image
    function changeImg(event) {
      var mouseX = Math.floor(event.pageX);
      
      // Show the scale after interaction begins
      $(""#scale-container"").css(""display"", ""block"");
      
      // Update current marker position based on mouse position
      var scaleWidth = $(""#scale-container"").width();
      var relativePos = Math.max(0, Math.min(mouseX - scaleLeft, scaleWidth));
      var percentPos = (relativePos / scaleWidth) * 100;
      
      $(""#current-marker"").css({
        ""left"": `${relativePos}px`,
        ""display"": ""block""
      });
      
      for (var i = 0; i < __imageMouseOver.slices.length; i++) {
        // if mouse X position is within the bounds of the X axis slice,
        // change the image to one that is indexed to that slice
        if (mouseX >= __imageMouseOver.slices[i][0] && mouseX <= __imageMouseOver.slices[i][1]) {
          // capture which slice is selected
          __imageMouseOver.sliceSelected = i;
          // update img src to the picture that corresponds to that slice
          $('#changeable-image').attr('src', `img/${__imageMouseOver.imgBase}${__imageMouseOver.nScale[i]}.jpg`);
        }
      };
    };
    
    // define the click listener that ends trial
    function clickHandler(event) {
      if (__listenerBools['mousemove']) {
        // derive trial data
        var trialData = __imageMouseOver.trialData;
        var end_time = (new Date()).getTime();
        var rt = end_time - __imageMouseOver.startTime;
        trialData['rt'] = rt;
        trialData['stimulus_duration'] = rt;
        trialData['trial_duration'] = rt;
        trialData['imageSelected'] = `${__imageMouseOver.imgBase}${__imageMouseOver.nScale[__imageMouseOver.sliceSelected]}.jpg`
        trialData['indexSelected'] = __imageMouseOver.sliceSelected;
        // turn off listeners
        $(document).off('mousemove');
        $(document).off('click');
        // clean up variable namespaces
        delete window.__imageMouseOver
        delete __listenerBools;
        // clean up scale
        $(""#scale-container"").remove();
        // finish the trial with trial data
        jsPsych.finishTrial(trialData);
      };
    };
  
    function verticalLineInit(event) {
      var mouseX = Math.floor(event.pageX);
      if (mouseX <= __imageMouseOver.lineSlice) {
        $(""#vertLine"").remove();
        $(""#linePrompt"").remove();
        $(""#jspsych-image-slider-response_noButton-stimulus > img"").css({
          ""filter"":""blur(0px)"",
          ""visibility"": ""visible"",
        });
        $('#jspsych-content > p').css(""visibility"", ""visible"");
        __listenerBools['mousemove'] = true;
        // turn off THIS mouse move listener
        $(document).off(""mousemove"");
        // turn on the mouse move listener that changes the image
        $(document).mousemove(changeImg);
        // add mouse click listener
        $(document).on('click', clickHandler);
      };
    };
  
    // turn on the vertical line mouse move listener
    $(document).mousemove(verticalLineInit);
  }","[object Object]","0","","Continue","12437","12437","true","red22.jpg","21","400","red","11","[34,42,43,46,48,36,39,44,47,35,38]","41.09090909090909","giraffe","1",""
"html-keyboard-response","10","54894","0.0-10.0","gal","null","","","","<p style=""font-size: 48px;""> + </p>","null","fixation","","","","","","","","","","","","","","","","","","","","","","","",""
"html-keyboard-response","11","56409","0.0-11.0","gal","null","","","","<span class='grid'><div class='red' style='background-position:1300% 0%;margin-top:44px'></div> <div class='red' style='background-position:1700% 0%;margin-top:36px'></div> <div> </div> <div class='red' style='background-position:600% 0%;margin-top:23px'></div> <div> </div> <div class='red' style='background-position:900% 0%;margin-top:50px'></div> <div class='red' style='background-position:1500% 0%;margin-top:50px'></div> <div> </div> <div> </div> <div class='red' style='background-position:1400% 0%;margin-top:20px'></div> <div> </div> <div> </div> <div class='red' style='background-position:1200% 0%;margin-top:27px'></div> <div> </div> <div> </div> <div class='red' style='background-position:1800% 0%;margin-top:31px'></div> <div> </div> <div class='red' style='background-position:1900% 0%;margin-top:44px'></div></span>","null","stimulus","{""index"":0,""type"":""practice"",""color"":""red""}","","","","","","","","","","","","","","","","","","","","","","",""
"image-slider-response_noButton","12","59004","0.0-12.0","gal","2593","","","","img/red1.jpg,img/red2.jpg,img/red3.jpg,img/red4.jpg,img/red5.jpg,img/red6.jpg,img/red7.jpg,img/red8.jpg,img/red9.jpg,img/red10.jpg,img/red11.jpg,img/red12.jpg,img/red13.jpg,img/red14.jpg,img/red15.jpg,img/red16.jpg,img/red17.jpg,img/red18.jpg,img/red19.jpg,img/red20.jpg,img/red21.jpg,img/red22.jpg,img/red23.jpg,img/red24.jpg,img/red25.jpg,img/red26.jpg,img/red27.jpg,img/red28.jpg,img/red29.jpg,img/red30.jpg,img/red31.jpg,img/red32.jpg,img/red33.jpg,img/red34.jpg,img/red35.jpg,img/red36.jpg,img/red37.jpg,img/red38.jpg,img/red39.jpg,img/red40.jpg,img/red41.jpg,img/red42.jpg,img/red43.jpg,img/red44.jpg,img/red45.jpg,img/red46.jpg,img/red47.jpg,img/red48.jpg,img/red49.jpg,img/red50.jpg","","response","{""index"":1,""type"":""practice"",""color"":""red""}","image-slider-response_noButton","<p>how red was the stimulus in your opinion?</p>","1","50","0","function morphedScaleRed() {
    // defining a few helper functions
    function nrange(size, startAt = 0) {
      return [...Array(size).keys()].map(i => i + startAt);
    };
  
    function fillArray(value, len) {
      var arr = [];
      for (var i = 0; i < len; i++) {
        arr.push(value);
      }
      return arr;
    };
  
    function generateSlices(vWidth, nSlices) {
      var step = vWidth*0.6/(nSlices-2);
      var stepArray = fillArray(step,nSlices-2)
      stepArray.unshift(0.2*vWidth)
      stepArray.push(0.2*vWidth)
  
      var bounds = [];
      
      for (var i = 0; i < nSlices; i++) {
        if (i==0) {
          bounds.push([(i*stepArray[i]), (i*stepArray[i])+stepArray[i]])
        } else if (i>0 && i!=nSlices-1) {
          bounds.push([(i*stepArray[i]+0.2*vWidth), (i*stepArray[i])+stepArray[i]+0.2*vWidth])
        } else {
          bounds.push([(vWidth-0.2*vWidth), vWidth])  
        }
      };
      return bounds;
    };
    
    // start trial timer
    var startTime = (new Date()).getTime();
    // get trial data
    var trialData = jsPsych.currentTrial();
  
    // remove the picture scales and the slider
    $('.jspsych-image-slider-response_noButton-container').css(""visibility"", ""hidden"");
    $('img').remove();
    var imgScale = getScaleRed();
    
    // derive the letter of the image filenames
    var imgBase = imgScale[0].split('img/')[1].split('.jpg')[0].replace(/\d+/g, '');
    
    // split the number of the image filenames off from the rest of it
    var nScale = [];
    for (var i = 0; i < imgScale.length-1; i++) {
      var n = imgScale[i].split('img/')[1].split('.jpg')[0].split(imgBase)[1];
      nScale.push(n);
    };
    
    // calculate the element width, and slice it up into sections
    var vWidth = $(document).width();
    var nSlices = nScale.length;
    var slices = generateSlices(vWidth, nSlices);
  
    // setting up initial vertical line to start the mousemove functionality
    var vHeight = $(document).height()-8;
    var lineSlice = vWidth / 10;
    var vertLine = `<div style=""border-left:black;border-style:solid;margin-left:${lineSlice}px; height:${vHeight}px;width:0px;position:absolute;"" id=""vertLine""></div>`;
    var linePrompt = `<div id=""linePrompt""><div style=""font-size:50px;position:absolute;margin-left:${lineSlice*1.3}px;margin-top:${vHeight/2}px""></div><div style=""position:absolute;margin-left:${lineSlice*1.2}px;margin-top:${vHeight/2}px;z-index:5;"">Move mouse left of the line to begin</div></div>`;
    $("".jspsych-content-wrapper"").prepend(vertLine);
    $("".jspsych-content-wrapper"").prepend(linePrompt);
    
    // hide prompt until the trial is begun
    $('#jspsych-content > p').css(""visibility"", ""hidden"");
  
    // initialize the central image with the most neutral one (i.e. from
    // the middle of the scale) and set the image to be blurred
    var initialImage = imgScale[0];
    $('#jspsych-image-slider-response_noButton-stimulus').append(`<img src=""${initialImage}"" style=""filter:blur(4px);visibility:hidden;"" id=""changeable-image""/>`);
  
    // ADD VISUAL SCALE SHOWING MIN/MAX
    var scaleWidth = vWidth * 0.6;
    var scaleLeft = vWidth * 0.2;
    var scaleHtml = `
      <div id=""scale-container"" style=""position:absolute; bottom:120px; left:${scaleLeft}px; width:${scaleWidth}px; height:30px; background-color:rgba(220,220,220,0.7); border-radius:5px; display:none; z-index:10;"">
        <div style=""position:absolute; left:0px; width:2px; height:30px; background-color:black;""></div>
        <div style=""position:absolute; left:0px; top:32px; font-size:12px; color:black;"">Min (1)</div>
        <div style=""position:absolute; right:0px; width:2px; height:30px; background-color:black;""></div>
        <div style=""position:absolute; right:0px; top:32px; font-size:12px; color:black;"">Max (50)</div>
        <div id=""current-marker"" style=""position:absolute; left:0px; width:2px; height:30px; background-color:red; display:none;""></div>
      </div>
    `;
    $("".jspsych-content-wrapper"").append(scaleHtml);
  
    // workaround with a global variable
    window.__imageMouseOver = {
      lineSlice: lineSlice,
      slices: slices,
      nScale: nScale,
      imgBase: imgBase,
      startTime: startTime,
      trialData: trialData,
      sliceSelected: 0,
    };
    var __listenerBools = {};
  
    // define mousemove event listener that changes image
    function changeImg(event) {
      var mouseX = Math.floor(event.pageX);
      
      // Show the scale after interaction begins
      $(""#scale-container"").css(""display"", ""block"");
      
      // Update current marker position based on mouse position
      var scaleWidth = $(""#scale-container"").width();
      var relativePos = Math.max(0, Math.min(mouseX - scaleLeft, scaleWidth));
      var percentPos = (relativePos / scaleWidth) * 100;
      
      $(""#current-marker"").css({
        ""left"": `${relativePos}px`,
        ""display"": ""block""
      });
      
      for (var i = 0; i < __imageMouseOver.slices.length; i++) {
        // if mouse X position is within the bounds of the X axis slice,
        // change the image to one that is indexed to that slice
        if (mouseX >= __imageMouseOver.slices[i][0] && mouseX <= __imageMouseOver.slices[i][1]) {
          // capture which slice is selected
          __imageMouseOver.sliceSelected = i;
          // update img src to the picture that corresponds to that slice
          $('#changeable-image').attr('src', `img/${__imageMouseOver.imgBase}${__imageMouseOver.nScale[i]}.jpg`);
        }
      };
    };
    
    // define the click listener that ends trial
    function clickHandler(event) {
      if (__listenerBools['mousemove']) {
        // derive trial data
        var trialData = __imageMouseOver.trialData;
        var end_time = (new Date()).getTime();
        var rt = end_time - __imageMouseOver.startTime;
        trialData['rt'] = rt;
        trialData['stimulus_duration'] = rt;
        trialData['trial_duration'] = rt;
        trialData['imageSelected'] = `${__imageMouseOver.imgBase}${__imageMouseOver.nScale[__imageMouseOver.sliceSelected]}.jpg`
        trialData['indexSelected'] = __imageMouseOver.sliceSelected;
        // turn off listeners
        $(document).off('mousemove');
        $(document).off('click');
        // clean up variable namespaces
        delete window.__imageMouseOver
        delete __listenerBools;
        // clean up scale
        $(""#scale-container"").remove();
        // finish the trial with trial data
        jsPsych.finishTrial(trialData);
      };
    };
  
    function verticalLineInit(event) {
      var mouseX = Math.floor(event.pageX);
      if (mouseX <= __imageMouseOver.lineSlice) {
        $(""#vertLine"").remove();
        $(""#linePrompt"").remove();
        $(""#jspsych-image-slider-response_noButton-stimulus > img"").css({
          ""filter"":""blur(0px)"",
          ""visibility"": ""visible"",
        });
        $('#jspsych-content > p').css(""visibility"", ""visible"");
        __listenerBools['mousemove'] = true;
        // turn off THIS mouse move listener
        $(document).off(""mousemove"");
        // turn on the mouse move listener that changes the image
        $(document).mousemove(changeImg);
        // add mouse click listener
        $(document).on('click', clickHandler);
      };
    };
  
    // turn on the vertical line mouse move listener
    $(document).mousemove(verticalLineInit);
  }","[object Object]","0","","Continue","2593","2593","true","red41.jpg","40","400","red","9","[15,17,18,14,19,12,9,6,13]","13.666666666666666","giraffe","2",""
"html-keyboard-response","13","59509","0.0-13.0","gal","null","","","","<p style=""font-size: 48px;""> + </p>","null","fixation","","","","","","","","","","","","","","","","","","","","","","","",""
"html-keyboard-response","14","61013","0.0-14.0","gal","null","","","","<span class='grid'><div> </div> <div> </div> <div> </div> <div class='red' style='background-position:4500% 0%;margin-top:43px'></div> <div class='red' style='background-position:4600% 0%;margin-top:35px'></div> <div class='red' style='background-position:3500% 0%;margin-top:31px'></div> <div class='red' style='background-position:4100% 0%;margin-top:49px'></div> <div> </div> <div class='red' style='background-position:4400% 0%;margin-top:24px'></div> <div class='red' style='background-position:3600% 0%;margin-top:46px'></div> <div> </div> <div class='red' style='background-position:4800% 0%;margin-top:42px'></div> <div class='red' style='background-position:4300% 0%;margin-top:42px'></div> <div> </div> <div> </div> <div> </div> <div> </div> <div class='red' style='background-position:4700% 0%;margin-top:49px'></div></span>","null","stimulus","{""index"":1,""type"":""practice"",""color"":""red""}","","","","","","","","","","","","","","","","","","","","","","",""
"image-slider-response_noButton","15","64196","0.0-15.0","gal","3182","","","","img/red1.jpg,img/red2.jpg,img/red3.jpg,img/red4.jpg,img/red5.jpg,img/red6.jpg,img/red7.jpg,img/red8.jpg,img/red9.jpg,img/red10.jpg,img/red11.jpg,img/red12.jpg,img/red13.jpg,img/red14.jpg,img/red15.jpg,img/red16.jpg,img/red17.jpg,img/red18.jpg,img/red19.jpg,img/red20.jpg,img/red21.jpg,img/red22.jpg,img/red23.jpg,img/red24.jpg,img/red25.jpg,img/red26.jpg,img/red27.jpg,img/red28.jpg,img/red29.jpg,img/red30.jpg,img/red31.jpg,img/red32.jpg,img/red33.jpg,img/red34.jpg,img/red35.jpg,img/red36.jpg,img/red37.jpg,img/red38.jpg,img/red39.jpg,img/red40.jpg,img/red41.jpg,img/red42.jpg,img/red43.jpg,img/red44.jpg,img/red45.jpg,img/red46.jpg,img/red47.jpg,img/red48.jpg,img/red49.jpg,img/red50.jpg","","response","{""index"":2,""type"":""practice"",""color"":""red""}","image-slider-response_noButton","<p>how red was the stimulus in your opinion?</p>","1","50","0","function morphedScaleRed() {
    // defining a few helper functions
    function nrange(size, startAt = 0) {
      return [...Array(size).keys()].map(i => i + startAt);
    };
  
    function fillArray(value, len) {
      var arr = [];
      for (var i = 0; i < len; i++) {
        arr.push(value);
      }
      return arr;
    };
  
    function generateSlices(vWidth, nSlices) {
      var step = vWidth*0.6/(nSlices-2);
      var stepArray = fillArray(step,nSlices-2)
      stepArray.unshift(0.2*vWidth)
      stepArray.push(0.2*vWidth)
  
      var bounds = [];
      
      for (var i = 0; i < nSlices; i++) {
        if (i==0) {
          bounds.push([(i*stepArray[i]), (i*stepArray[i])+stepArray[i]])
        } else if (i>0 && i!=nSlices-1) {
          bounds.push([(i*stepArray[i]+0.2*vWidth), (i*stepArray[i])+stepArray[i]+0.2*vWidth])
        } else {
          bounds.push([(vWidth-0.2*vWidth), vWidth])  
        }
      };
      return bounds;
    };
    
    // start trial timer
    var startTime = (new Date()).getTime();
    // get trial data
    var trialData = jsPsych.currentTrial();
  
    // remove the picture scales and the slider
    $('.jspsych-image-slider-response_noButton-container').css(""visibility"", ""hidden"");
    $('img').remove();
    var imgScale = getScaleRed();
    
    // derive the letter of the image filenames
    var imgBase = imgScale[0].split('img/')[1].split('.jpg')[0].replace(/\d+/g, '');
    
    // split the number of the image filenames off from the rest of it
    var nScale = [];
    for (var i = 0; i < imgScale.length-1; i++) {
      var n = imgScale[i].split('img/')[1].split('.jpg')[0].split(imgBase)[1];
      nScale.push(n);
    };
    
    // calculate the element width, and slice it up into sections
    var vWidth = $(document).width();
    var nSlices = nScale.length;
    var slices = generateSlices(vWidth, nSlices);
  
    // setting up initial vertical line to start the mousemove functionality
    var vHeight = $(document).height()-8;
    var lineSlice = vWidth / 10;
    var vertLine = `<div style=""border-left:black;border-style:solid;margin-left:${lineSlice}px; height:${vHeight}px;width:0px;position:absolute;"" id=""vertLine""></div>`;
    var linePrompt = `<div id=""linePrompt""><div style=""font-size:50px;position:absolute;margin-left:${lineSlice*1.3}px;margin-top:${vHeight/2}px""></div><div style=""position:absolute;margin-left:${lineSlice*1.2}px;margin-top:${vHeight/2}px;z-index:5;"">Move mouse left of the line to begin</div></div>`;
    $("".jspsych-content-wrapper"").prepend(vertLine);
    $("".jspsych-content-wrapper"").prepend(linePrompt);
    
    // hide prompt until the trial is begun
    $('#jspsych-content > p').css(""visibility"", ""hidden"");
  
    // initialize the central image with the most neutral one (i.e. from
    // the middle of the scale) and set the image to be blurred
    var initialImage = imgScale[0];
    $('#jspsych-image-slider-response_noButton-stimulus').append(`<img src=""${initialImage}"" style=""filter:blur(4px);visibility:hidden;"" id=""changeable-image""/>`);
  
    // ADD VISUAL SCALE SHOWING MIN/MAX
    var scaleWidth = vWidth * 0.6;
    var scaleLeft = vWidth * 0.2;
    var scaleHtml = `
      <div id=""scale-container"" style=""position:absolute; bottom:120px; left:${scaleLeft}px; width:${scaleWidth}px; height:30px; background-color:rgba(220,220,220,0.7); border-radius:5px; display:none; z-index:10;"">
        <div style=""position:absolute; left:0px; width:2px; height:30px; background-color:black;""></div>
        <div style=""position:absolute; left:0px; top:32px; font-size:12px; color:black;"">Min (1)</div>
        <div style=""position:absolute; right:0px; width:2px; height:30px; background-color:black;""></div>
        <div style=""position:absolute; right:0px; top:32px; font-size:12px; color:black;"">Max (50)</div>
        <div id=""current-marker"" style=""position:absolute; left:0px; width:2px; height:30px; background-color:red; display:none;""></div>
      </div>
    `;
    $("".jspsych-content-wrapper"").append(scaleHtml);
  
    // workaround with a global variable
    window.__imageMouseOver = {
      lineSlice: lineSlice,
      slices: slices,
      nScale: nScale,
      imgBase: imgBase,
      startTime: startTime,
      trialData: trialData,
      sliceSelected: 0,
    };
    var __listenerBools = {};
  
    // define mousemove event listener that changes image
    function changeImg(event) {
      var mouseX = Math.floor(event.pageX);
      
      // Show the scale after interaction begins
      $(""#scale-container"").css(""display"", ""block"");
      
      // Update current marker position based on mouse position
      var scaleWidth = $(""#scale-container"").width();
      var relativePos = Math.max(0, Math.min(mouseX - scaleLeft, scaleWidth));
      var percentPos = (relativePos / scaleWidth) * 100;
      
      $(""#current-marker"").css({
        ""left"": `${relativePos}px`,
        ""display"": ""block""
      });
      
      for (var i = 0; i < __imageMouseOver.slices.length; i++) {
        // if mouse X position is within the bounds of the X axis slice,
        // change the image to one that is indexed to that slice
        if (mouseX >= __imageMouseOver.slices[i][0] && mouseX <= __imageMouseOver.slices[i][1]) {
          // capture which slice is selected
          __imageMouseOver.sliceSelected = i;
          // update img src to the picture that corresponds to that slice
          $('#changeable-image').attr('src', `img/${__imageMouseOver.imgBase}${__imageMouseOver.nScale[i]}.jpg`);
        }
      };
    };
    
    // define the click listener that ends trial
    function clickHandler(event) {
      if (__listenerBools['mousemove']) {
        // derive trial data
        var trialData = __imageMouseOver.trialData;
        var end_time = (new Date()).getTime();
        var rt = end_time - __imageMouseOver.startTime;
        trialData['rt'] = rt;
        trialData['stimulus_duration'] = rt;
        trialData['trial_duration'] = rt;
        trialData['imageSelected'] = `${__imageMouseOver.imgBase}${__imageMouseOver.nScale[__imageMouseOver.sliceSelected]}.jpg`
        trialData['indexSelected'] = __imageMouseOver.sliceSelected;
        // turn off listeners
        $(document).off('mousemove');
        $(document).off('click');
        // clean up variable namespaces
        delete window.__imageMouseOver
        delete __listenerBools;
        // clean up scale
        $(""#scale-container"").remove();
        // finish the trial with trial data
        jsPsych.finishTrial(trialData);
      };
    };
  
    function verticalLineInit(event) {
      var mouseX = Math.floor(event.pageX);
      if (mouseX <= __imageMouseOver.lineSlice) {
        $(""#vertLine"").remove();
        $(""#linePrompt"").remove();
        $(""#jspsych-image-slider-response_noButton-stimulus > img"").css({
          ""filter"":""blur(0px)"",
          ""visibility"": ""visible"",
        });
        $('#jspsych-content > p').css(""visibility"", ""visible"");
        __listenerBools['mousemove'] = true;
        // turn off THIS mouse move listener
        $(document).off(""mousemove"");
        // turn on the mouse move listener that changes the image
        $(document).mousemove(changeImg);
        // add mouse click listener
        $(document).on('click', clickHandler);
      };
    };
  
    // turn on the vertical line mouse move listener
    $(document).mousemove(verticalLineInit);
  }","[object Object]","0","","Continue","3182","3182","true","red12.jpg","11","500","red","9","[43,45,35,46,47,36,44,41,48]","42.77777777777778","giraffe","3",""
"html-keyboard-response","16","64708","0.0-16.0","gal","null","","","","<p style=""font-size: 48px;""> + </p>","null","fixation","","","","","","","","","","","","","","","","","","","","","","","",""
"html-keyboard-response","17","66217","0.0-17.0","gal","null","","","","<span class='grid'><div class='red' style='background-position:4400% 0%;margin-top:37px'></div> <div> </div> <div class='red' style='background-position:3800% 0%;margin-top:27px'></div> <div class='red' style='background-position:4700% 0%;margin-top:30px'></div> <div> </div> <div class='red' style='background-position:4000% 0%;margin-top:22px'></div> <div class='red' style='background-position:3900% 0%;margin-top:25px'></div> <div class='red' style='background-position:3600% 0%;margin-top:34px'></div> <div> </div> <div> </div> <div class='red' style='background-position:3700% 0%;margin-top:46px'></div> <div> </div> <div class='red' style='background-position:4800% 0%;margin-top:24px'></div> <div class='red' style='background-position:4500% 0%;margin-top:22px'></div> <div> </div> <div> </div> <div class='red' style='background-position:3400% 0%;margin-top:26px'></div> <div> </div> <div class='red' style='background-position:4200% 0%;margin-top:46px'></div></span>","null","stimulus","{""index"":2,""type"":""practice"",""color"":""red""}","","","","","","","","","","","","","","","","","","","","","","",""
"image-slider-response_noButton","18","70420","0.0-18.0","gal","4201","","","","img/red1.jpg,img/red2.jpg,img/red3.jpg,img/red4.jpg,img/red5.jpg,img/red6.jpg,img/red7.jpg,img/red8.jpg,img/red9.jpg,img/red10.jpg,img/red11.jpg,img/red12.jpg,img/red13.jpg,img/red14.jpg,img/red15.jpg,img/red16.jpg,img/red17.jpg,img/red18.jpg,img/red19.jpg,img/red20.jpg,img/red21.jpg,img/red22.jpg,img/red23.jpg,img/red24.jpg,img/red25.jpg,img/red26.jpg,img/red27.jpg,img/red28.jpg,img/red29.jpg,img/red30.jpg,img/red31.jpg,img/red32.jpg,img/red33.jpg,img/red34.jpg,img/red35.jpg,img/red36.jpg,img/red37.jpg,img/red38.jpg,img/red39.jpg,img/red40.jpg,img/red41.jpg,img/red42.jpg,img/red43.jpg,img/red44.jpg,img/red45.jpg,img/red46.jpg,img/red47.jpg,img/red48.jpg,img/red49.jpg,img/red50.jpg","","response","{""index"":3,""type"":""practice"",""color"":""red""}","image-slider-response_noButton","<p>how red was the stimulus in your opinion?</p>","1","50","0","function morphedScaleRed() {
    // defining a few helper functions
    function nrange(size, startAt = 0) {
      return [...Array(size).keys()].map(i => i + startAt);
    };
  
    function fillArray(value, len) {
      var arr = [];
      for (var i = 0; i < len; i++) {
        arr.push(value);
      }
      return arr;
    };
  
    function generateSlices(vWidth, nSlices) {
      var step = vWidth*0.6/(nSlices-2);
      var stepArray = fillArray(step,nSlices-2)
      stepArray.unshift(0.2*vWidth)
      stepArray.push(0.2*vWidth)
  
      var bounds = [];
      
      for (var i = 0; i < nSlices; i++) {
        if (i==0) {
          bounds.push([(i*stepArray[i]), (i*stepArray[i])+stepArray[i]])
        } else if (i>0 && i!=nSlices-1) {
          bounds.push([(i*stepArray[i]+0.2*vWidth), (i*stepArray[i])+stepArray[i]+0.2*vWidth])
        } else {
          bounds.push([(vWidth-0.2*vWidth), vWidth])  
        }
      };
      return bounds;
    };
    
    // start trial timer
    var startTime = (new Date()).getTime();
    // get trial data
    var trialData = jsPsych.currentTrial();
  
    // remove the picture scales and the slider
    $('.jspsych-image-slider-response_noButton-container').css(""visibility"", ""hidden"");
    $('img').remove();
    var imgScale = getScaleRed();
    
    // derive the letter of the image filenames
    var imgBase = imgScale[0].split('img/')[1].split('.jpg')[0].replace(/\d+/g, '');
    
    // split the number of the image filenames off from the rest of it
    var nScale = [];
    for (var i = 0; i < imgScale.length-1; i++) {
      var n = imgScale[i].split('img/')[1].split('.jpg')[0].split(imgBase)[1];
      nScale.push(n);
    };
    
    // calculate the element width, and slice it up into sections
    var vWidth = $(document).width();
    var nSlices = nScale.length;
    var slices = generateSlices(vWidth, nSlices);
  
    // setting up initial vertical line to start the mousemove functionality
    var vHeight = $(document).height()-8;
    var lineSlice = vWidth / 10;
    var vertLine = `<div style=""border-left:black;border-style:solid;margin-left:${lineSlice}px; height:${vHeight}px;width:0px;position:absolute;"" id=""vertLine""></div>`;
    var linePrompt = `<div id=""linePrompt""><div style=""font-size:50px;position:absolute;margin-left:${lineSlice*1.3}px;margin-top:${vHeight/2}px""></div><div style=""position:absolute;margin-left:${lineSlice*1.2}px;margin-top:${vHeight/2}px;z-index:5;"">Move mouse left of the line to begin</div></div>`;
    $("".jspsych-content-wrapper"").prepend(vertLine);
    $("".jspsych-content-wrapper"").prepend(linePrompt);
    
    // hide prompt until the trial is begun
    $('#jspsych-content > p').css(""visibility"", ""hidden"");
  
    // initialize the central image with the most neutral one (i.e. from
    // the middle of the scale) and set the image to be blurred
    var initialImage = imgScale[0];
    $('#jspsych-image-slider-response_noButton-stimulus').append(`<img src=""${initialImage}"" style=""filter:blur(4px);visibility:hidden;"" id=""changeable-image""/>`);
  
    // ADD VISUAL SCALE SHOWING MIN/MAX
    var scaleWidth = vWidth * 0.6;
    var scaleLeft = vWidth * 0.2;
    var scaleHtml = `
      <div id=""scale-container"" style=""position:absolute; bottom:120px; left:${scaleLeft}px; width:${scaleWidth}px; height:30px; background-color:rgba(220,220,220,0.7); border-radius:5px; display:none; z-index:10;"">
        <div style=""position:absolute; left:0px; width:2px; height:30px; background-color:black;""></div>
        <div style=""position:absolute; left:0px; top:32px; font-size:12px; color:black;"">Min (1)</div>
        <div style=""position:absolute; right:0px; width:2px; height:30px; background-color:black;""></div>
        <div style=""position:absolute; right:0px; top:32px; font-size:12px; color:black;"">Max (50)</div>
        <div id=""current-marker"" style=""position:absolute; left:0px; width:2px; height:30px; background-color:red; display:none;""></div>
      </div>
    `;
    $("".jspsych-content-wrapper"").append(scaleHtml);
  
    // workaround with a global variable
    window.__imageMouseOver = {
      lineSlice: lineSlice,
      slices: slices,
      nScale: nScale,
      imgBase: imgBase,
      startTime: startTime,
      trialData: trialData,
      sliceSelected: 0,
    };
    var __listenerBools = {};
  
    // define mousemove event listener that changes image
    function changeImg(event) {
      var mouseX = Math.floor(event.pageX);
      
      // Show the scale after interaction begins
      $(""#scale-container"").css(""display"", ""block"");
      
      // Update current marker position based on mouse position
      var scaleWidth = $(""#scale-container"").width();
      var relativePos = Math.max(0, Math.min(mouseX - scaleLeft, scaleWidth));
      var percentPos = (relativePos / scaleWidth) * 100;
      
      $(""#current-marker"").css({
        ""left"": `${relativePos}px`,
        ""display"": ""block""
      });
      
      for (var i = 0; i < __imageMouseOver.slices.length; i++) {
        // if mouse X position is within the bounds of the X axis slice,
        // change the image to one that is indexed to that slice
        if (mouseX >= __imageMouseOver.slices[i][0] && mouseX <= __imageMouseOver.slices[i][1]) {
          // capture which slice is selected
          __imageMouseOver.sliceSelected = i;
          // update img src to the picture that corresponds to that slice
          $('#changeable-image').attr('src', `img/${__imageMouseOver.imgBase}${__imageMouseOver.nScale[i]}.jpg`);
        }
      };
    };
    
    // define the click listener that ends trial
    function clickHandler(event) {
      if (__listenerBools['mousemove']) {
        // derive trial data
        var trialData = __imageMouseOver.trialData;
        var end_time = (new Date()).getTime();
        var rt = end_time - __imageMouseOver.startTime;
        trialData['rt'] = rt;
        trialData['stimulus_duration'] = rt;
        trialData['trial_duration'] = rt;
        trialData['imageSelected'] = `${__imageMouseOver.imgBase}${__imageMouseOver.nScale[__imageMouseOver.sliceSelected]}.jpg`
        trialData['indexSelected'] = __imageMouseOver.sliceSelected;
        // turn off listeners
        $(document).off('mousemove');
        $(document).off('click');
        // clean up variable namespaces
        delete window.__imageMouseOver
        delete __listenerBools;
        // clean up scale
        $(""#scale-container"").remove();
        // finish the trial with trial data
        jsPsych.finishTrial(trialData);
      };
    };
  
    function verticalLineInit(event) {
      var mouseX = Math.floor(event.pageX);
      if (mouseX <= __imageMouseOver.lineSlice) {
        $(""#vertLine"").remove();
        $(""#linePrompt"").remove();
        $(""#jspsych-image-slider-response_noButton-stimulus > img"").css({
          ""filter"":""blur(0px)"",
          ""visibility"": ""visible"",
        });
        $('#jspsych-content > p').css(""visibility"", ""visible"");
        __listenerBools['mousemove'] = true;
        // turn off THIS mouse move listener
        $(document).off(""mousemove"");
        // turn on the mouse move listener that changes the image
        $(document).mousemove(changeImg);
        // add mouse click listener
        $(document).on('click', clickHandler);
      };
    };
  
    // turn on the vertical line mouse move listener
    $(document).mousemove(verticalLineInit);
  }","[object Object]","0","","Continue","4201","4201","true","red17.jpg","16","500","red","11","[34,40,47,36,42,48,38,37,39,45,44]","40.90909090909091","giraffe","4",""
"html-keyboard-response","19","70829","0.0-19.0","gal","null","","","","<p style=""font-size: 48px;""> + </p>","null","fixation","","","","","","","","","","","","","","","","","","","","","","","",""
"html-keyboard-response","20","72343","0.0-20.0","gal","null","","","","<span class='grid'><div> </div> <div class='red' style='background-position:4500% 0%;margin-top:22px'></div> <div> </div> <div class='red' style='background-position:3600% 0%;margin-top:33px'></div> <div> </div> <div> </div> <div> </div> <div> </div> <div> </div> <div> </div> <div> </div> <div> </div> <div> </div> <div class='red' style='background-position:4300% 0%;margin-top:37px'></div> <div> </div></span>","null","stimulus","{""index"":3,""type"":""practice"",""color"":""red""}","","","","","","","","","","","","","","","","","","","","","","",""
"image-slider-response_noButton","21","74956","0.0-21.0","gal","2612","","","","img/red1.jpg,img/red2.jpg,img/red3.jpg,img/red4.jpg,img/red5.jpg,img/red6.jpg,img/red7.jpg,img/red8.jpg,img/red9.jpg,img/red10.jpg,img/red11.jpg,img/red12.jpg,img/red13.jpg,img/red14.jpg,img/red15.jpg,img/red16.jpg,img/red17.jpg,img/red18.jpg,img/red19.jpg,img/red20.jpg,img/red21.jpg,img/red22.jpg,img/red23.jpg,img/red24.jpg,img/red25.jpg,img/red26.jpg,img/red27.jpg,img/red28.jpg,img/red29.jpg,img/red30.jpg,img/red31.jpg,img/red32.jpg,img/red33.jpg,img/red34.jpg,img/red35.jpg,img/red36.jpg,img/red37.jpg,img/red38.jpg,img/red39.jpg,img/red40.jpg,img/red41.jpg,img/red42.jpg,img/red43.jpg,img/red44.jpg,img/red45.jpg,img/red46.jpg,img/red47.jpg,img/red48.jpg,img/red49.jpg,img/red50.jpg","","response","{""index"":4,""type"":""practice"",""color"":""red""}","image-slider-response_noButton","<p>how red was the stimulus in your opinion?</p>","1","50","0","function morphedScaleRed() {
    // defining a few helper functions
    function nrange(size, startAt = 0) {
      return [...Array(size).keys()].map(i => i + startAt);
    };
  
    function fillArray(value, len) {
      var arr = [];
      for (var i = 0; i < len; i++) {
        arr.push(value);
      }
      return arr;
    };
  
    function generateSlices(vWidth, nSlices) {
      var step = vWidth*0.6/(nSlices-2);
      var stepArray = fillArray(step,nSlices-2)
      stepArray.unshift(0.2*vWidth)
      stepArray.push(0.2*vWidth)
  
      var bounds = [];
      
      for (var i = 0; i < nSlices; i++) {
        if (i==0) {
          bounds.push([(i*stepArray[i]), (i*stepArray[i])+stepArray[i]])
        } else if (i>0 && i!=nSlices-1) {
          bounds.push([(i*stepArray[i]+0.2*vWidth), (i*stepArray[i])+stepArray[i]+0.2*vWidth])
        } else {
          bounds.push([(vWidth-0.2*vWidth), vWidth])  
        }
      };
      return bounds;
    };
    
    // start trial timer
    var startTime = (new Date()).getTime();
    // get trial data
    var trialData = jsPsych.currentTrial();
  
    // remove the picture scales and the slider
    $('.jspsych-image-slider-response_noButton-container').css(""visibility"", ""hidden"");
    $('img').remove();
    var imgScale = getScaleRed();
    
    // derive the letter of the image filenames
    var imgBase = imgScale[0].split('img/')[1].split('.jpg')[0].replace(/\d+/g, '');
    
    // split the number of the image filenames off from the rest of it
    var nScale = [];
    for (var i = 0; i < imgScale.length-1; i++) {
      var n = imgScale[i].split('img/')[1].split('.jpg')[0].split(imgBase)[1];
      nScale.push(n);
    };
    
    // calculate the element width, and slice it up into sections
    var vWidth = $(document).width();
    var nSlices = nScale.length;
    var slices = generateSlices(vWidth, nSlices);
  
    // setting up initial vertical line to start the mousemove functionality
    var vHeight = $(document).height()-8;
    var lineSlice = vWidth / 10;
    var vertLine = `<div style=""border-left:black;border-style:solid;margin-left:${lineSlice}px; height:${vHeight}px;width:0px;position:absolute;"" id=""vertLine""></div>`;
    var linePrompt = `<div id=""linePrompt""><div style=""font-size:50px;position:absolute;margin-left:${lineSlice*1.3}px;margin-top:${vHeight/2}px""></div><div style=""position:absolute;margin-left:${lineSlice*1.2}px;margin-top:${vHeight/2}px;z-index:5;"">Move mouse left of the line to begin</div></div>`;
    $("".jspsych-content-wrapper"").prepend(vertLine);
    $("".jspsych-content-wrapper"").prepend(linePrompt);
    
    // hide prompt until the trial is begun
    $('#jspsych-content > p').css(""visibility"", ""hidden"");
  
    // initialize the central image with the most neutral one (i.e. from
    // the middle of the scale) and set the image to be blurred
    var initialImage = imgScale[0];
    $('#jspsych-image-slider-response_noButton-stimulus').append(`<img src=""${initialImage}"" style=""filter:blur(4px);visibility:hidden;"" id=""changeable-image""/>`);
  
    // ADD VISUAL SCALE SHOWING MIN/MAX
    var scaleWidth = vWidth * 0.6;
    var scaleLeft = vWidth * 0.2;
    var scaleHtml = `
      <div id=""scale-container"" style=""position:absolute; bottom:120px; left:${scaleLeft}px; width:${scaleWidth}px; height:30px; background-color:rgba(220,220,220,0.7); border-radius:5px; display:none; z-index:10;"">
        <div style=""position:absolute; left:0px; width:2px; height:30px; background-color:black;""></div>
        <div style=""position:absolute; left:0px; top:32px; font-size:12px; color:black;"">Min (1)</div>
        <div style=""position:absolute; right:0px; width:2px; height:30px; background-color:black;""></div>
        <div style=""position:absolute; right:0px; top:32px; font-size:12px; color:black;"">Max (50)</div>
        <div id=""current-marker"" style=""position:absolute; left:0px; width:2px; height:30px; background-color:red; display:none;""></div>
      </div>
    `;
    $("".jspsych-content-wrapper"").append(scaleHtml);
  
    // workaround with a global variable
    window.__imageMouseOver = {
      lineSlice: lineSlice,
      slices: slices,
      nScale: nScale,
      imgBase: imgBase,
      startTime: startTime,
      trialData: trialData,
      sliceSelected: 0,
    };
    var __listenerBools = {};
  
    // define mousemove event listener that changes image
    function changeImg(event) {
      var mouseX = Math.floor(event.pageX);
      
      // Show the scale after interaction begins
      $(""#scale-container"").css(""display"", ""block"");
      
      // Update current marker position based on mouse position
      var scaleWidth = $(""#scale-container"").width();
      var relativePos = Math.max(0, Math.min(mouseX - scaleLeft, scaleWidth));
      var percentPos = (relativePos / scaleWidth) * 100;
      
      $(""#current-marker"").css({
        ""left"": `${relativePos}px`,
        ""display"": ""block""
      });
      
      for (var i = 0; i < __imageMouseOver.slices.length; i++) {
        // if mouse X position is within the bounds of the X axis slice,
        // change the image to one that is indexed to that slice
        if (mouseX >= __imageMouseOver.slices[i][0] && mouseX <= __imageMouseOver.slices[i][1]) {
          // capture which slice is selected
          __imageMouseOver.sliceSelected = i;
          // update img src to the picture that corresponds to that slice
          $('#changeable-image').attr('src', `img/${__imageMouseOver.imgBase}${__imageMouseOver.nScale[i]}.jpg`);
        }
      };
    };
    
    // define the click listener that ends trial
    function clickHandler(event) {
      if (__listenerBools['mousemove']) {
        // derive trial data
        var trialData = __imageMouseOver.trialData;
        var end_time = (new Date()).getTime();
        var rt = end_time - __imageMouseOver.startTime;
        trialData['rt'] = rt;
        trialData['stimulus_duration'] = rt;
        trialData['trial_duration'] = rt;
        trialData['imageSelected'] = `${__imageMouseOver.imgBase}${__imageMouseOver.nScale[__imageMouseOver.sliceSelected]}.jpg`
        trialData['indexSelected'] = __imageMouseOver.sliceSelected;
        // turn off listeners
        $(document).off('mousemove');
        $(document).off('click');
        // clean up variable namespaces
        delete window.__imageMouseOver
        delete __listenerBools;
        // clean up scale
        $(""#scale-container"").remove();
        // finish the trial with trial data
        jsPsych.finishTrial(trialData);
      };
    };
  
    function verticalLineInit(event) {
      var mouseX = Math.floor(event.pageX);
      if (mouseX <= __imageMouseOver.lineSlice) {
        $(""#vertLine"").remove();
        $(""#linePrompt"").remove();
        $(""#jspsych-image-slider-response_noButton-stimulus > img"").css({
          ""filter"":""blur(0px)"",
          ""visibility"": ""visible"",
        });
        $('#jspsych-content > p').css(""visibility"", ""visible"");
        __listenerBools['mousemove'] = true;
        // turn off THIS mouse move listener
        $(document).off(""mousemove"");
        // turn on the mouse move listener that changes the image
        $(document).mousemove(changeImg);
        // add mouse click listener
        $(document).on('click', clickHandler);
      };
    };
  
    // turn on the vertical line mouse move listener
    $(document).mousemove(verticalLineInit);
  }","[object Object]","0","","Continue","2612","2612","true","red15.jpg","14","400","red","3","[43,45,36]","41.333333333333336","giraffe","5",""
"instructions","22","76332","0.0-22.0","gal","1375.4000000953674","","[{""page_index"":0,""viewing_time"":1375.2000000476837}]","","","","","","","","","","","","","","","","","","","","","","","","","","","",""
"survey-text","23","84004","0.0-23.0-0.0","gal","7671.099999904633","","","{""Q0"":""rock""}","","","","","","","","","","","","","","","","","","","","","","","","","","",""
"html-keyboard-response","24","84609","0.0-24.0","gal","null","","","","<p style=""font-size: 48px;""> + </p>","null","fixation","","","","","","","","","","","","","","","","","","","","","","","","red"
"html-keyboard-response","25","86119","0.0-25.0","gal","null","","","","<span class='grid'><div> </div> <div class='red' style='background-position:1200% 0%;margin-top:26px'></div> <div> </div> <div> </div> <div> </div> <div> </div> <div class='red' style='background-position:600% 0%;margin-top:25px'></div> <div> </div> <div> </div> <div> </div> <div> </div> <div> </div> <div> </div> <div> </div></span>","null","stimulus","{""index"":4,""type"":""practice"",""color"":""red""}","","","","","","","","","","","","","","","","","","","","","","","red"
"image-slider-response_noButton","26","90180","0.0-26.0","gal","4059","","","","img/red1.jpg,img/red2.jpg,img/red3.jpg,img/red4.jpg,img/red5.jpg,img/red6.jpg,img/red7.jpg,img/red8.jpg,img/red9.jpg,img/red10.jpg,img/red11.jpg,img/red12.jpg,img/red13.jpg,img/red14.jpg,img/red15.jpg,img/red16.jpg,img/red17.jpg,img/red18.jpg,img/red19.jpg,img/red20.jpg,img/red21.jpg,img/red22.jpg,img/red23.jpg,img/red24.jpg,img/red25.jpg,img/red26.jpg,img/red27.jpg,img/red28.jpg,img/red29.jpg,img/red30.jpg,img/red31.jpg,img/red32.jpg,img/red33.jpg,img/red34.jpg,img/red35.jpg,img/red36.jpg,img/red37.jpg,img/red38.jpg,img/red39.jpg,img/red40.jpg,img/red41.jpg,img/red42.jpg,img/red43.jpg,img/red44.jpg,img/red45.jpg,img/red46.jpg,img/red47.jpg,img/red48.jpg,img/red49.jpg,img/red50.jpg","","response","{""index"":0,""type"":""experimental"",""array_length"":2,""meanVal"":9,""color"":""red""}","image-slider-response_noButton","<p>how red was the stimulus in your opinion?</p>","1","50","0","function morphedScaleRed() {
    // defining a few helper functions
    function nrange(size, startAt = 0) {
      return [...Array(size).keys()].map(i => i + startAt);
    };
  
    function fillArray(value, len) {
      var arr = [];
      for (var i = 0; i < len; i++) {
        arr.push(value);
      }
      return arr;
    };
  
    function generateSlices(vWidth, nSlices) {
      var step = vWidth*0.6/(nSlices-2);
      var stepArray = fillArray(step,nSlices-2)
      stepArray.unshift(0.2*vWidth)
      stepArray.push(0.2*vWidth)
  
      var bounds = [];
      
      for (var i = 0; i < nSlices; i++) {
        if (i==0) {
          bounds.push([(i*stepArray[i]), (i*stepArray[i])+stepArray[i]])
        } else if (i>0 && i!=nSlices-1) {
          bounds.push([(i*stepArray[i]+0.2*vWidth), (i*stepArray[i])+stepArray[i]+0.2*vWidth])
        } else {
          bounds.push([(vWidth-0.2*vWidth), vWidth])  
        }
      };
      return bounds;
    };
    
    // start trial timer
    var startTime = (new Date()).getTime();
    // get trial data
    var trialData = jsPsych.currentTrial();
  
    // remove the picture scales and the slider
    $('.jspsych-image-slider-response_noButton-container').css(""visibility"", ""hidden"");
    $('img').remove();
    var imgScale = getScaleRed();
    
    // derive the letter of the image filenames
    var imgBase = imgScale[0].split('img/')[1].split('.jpg')[0].replace(/\d+/g, '');
    
    // split the number of the image filenames off from the rest of it
    var nScale = [];
    for (var i = 0; i < imgScale.length-1; i++) {
      var n = imgScale[i].split('img/')[1].split('.jpg')[0].split(imgBase)[1];
      nScale.push(n);
    };
    
    // calculate the element width, and slice it up into sections
    var vWidth = $(document).width();
    var nSlices = nScale.length;
    var slices = generateSlices(vWidth, nSlices);
  
    // setting up initial vertical line to start the mousemove functionality
    var vHeight = $(document).height()-8;
    var lineSlice = vWidth / 10;
    var vertLine = `<div style=""border-left:black;border-style:solid;margin-left:${lineSlice}px; height:${vHeight}px;width:0px;position:absolute;"" id=""vertLine""></div>`;
    var linePrompt = `<div id=""linePrompt""><div style=""font-size:50px;position:absolute;margin-left:${lineSlice*1.3}px;margin-top:${vHeight/2}px""></div><div style=""position:absolute;margin-left:${lineSlice*1.2}px;margin-top:${vHeight/2}px;z-index:5;"">Move mouse left of the line to begin</div></div>`;
    $("".jspsych-content-wrapper"").prepend(vertLine);
    $("".jspsych-content-wrapper"").prepend(linePrompt);
    
    // hide prompt until the trial is begun
    $('#jspsych-content > p').css(""visibility"", ""hidden"");
  
    // initialize the central image with the most neutral one (i.e. from
    // the middle of the scale) and set the image to be blurred
    var initialImage = imgScale[0];
    $('#jspsych-image-slider-response_noButton-stimulus').append(`<img src=""${initialImage}"" style=""filter:blur(4px);visibility:hidden;"" id=""changeable-image""/>`);
  
    // ADD VISUAL SCALE SHOWING MIN/MAX
    var scaleWidth = vWidth * 0.6;
    var scaleLeft = vWidth * 0.2;
    var scaleHtml = `
      <div id=""scale-container"" style=""position:absolute; bottom:120px; left:${scaleLeft}px; width:${scaleWidth}px; height:30px; background-color:rgba(220,220,220,0.7); border-radius:5px; display:none; z-index:10;"">
        <div style=""position:absolute; left:0px; width:2px; height:30px; background-color:black;""></div>
        <div style=""position:absolute; left:0px; top:32px; font-size:12px; color:black;"">Min (1)</div>
        <div style=""position:absolute; right:0px; width:2px; height:30px; background-color:black;""></div>
        <div style=""position:absolute; right:0px; top:32px; font-size:12px; color:black;"">Max (50)</div>
        <div id=""current-marker"" style=""position:absolute; left:0px; width:2px; height:30px; background-color:red; display:none;""></div>
      </div>
    `;
    $("".jspsych-content-wrapper"").append(scaleHtml);
  
    // workaround with a global variable
    window.__imageMouseOver = {
      lineSlice: lineSlice,
      slices: slices,
      nScale: nScale,
      imgBase: imgBase,
      startTime: startTime,
      trialData: trialData,
      sliceSelected: 0,
    };
    var __listenerBools = {};
  
    // define mousemove event listener that changes image
    function changeImg(event) {
      var mouseX = Math.floor(event.pageX);
      
      // Show the scale after interaction begins
      $(""#scale-container"").css(""display"", ""block"");
      
      // Update current marker position based on mouse position
      var scaleWidth = $(""#scale-container"").width();
      var relativePos = Math.max(0, Math.min(mouseX - scaleLeft, scaleWidth));
      var percentPos = (relativePos / scaleWidth) * 100;
      
      $(""#current-marker"").css({
        ""left"": `${relativePos}px`,
        ""display"": ""block""
      });
      
      for (var i = 0; i < __imageMouseOver.slices.length; i++) {
        // if mouse X position is within the bounds of the X axis slice,
        // change the image to one that is indexed to that slice
        if (mouseX >= __imageMouseOver.slices[i][0] && mouseX <= __imageMouseOver.slices[i][1]) {
          // capture which slice is selected
          __imageMouseOver.sliceSelected = i;
          // update img src to the picture that corresponds to that slice
          $('#changeable-image').attr('src', `img/${__imageMouseOver.imgBase}${__imageMouseOver.nScale[i]}.jpg`);
        }
      };
    };
    
    // define the click listener that ends trial
    function clickHandler(event) {
      if (__listenerBools['mousemove']) {
        // derive trial data
        var trialData = __imageMouseOver.trialData;
        var end_time = (new Date()).getTime();
        var rt = end_time - __imageMouseOver.startTime;
        trialData['rt'] = rt;
        trialData['stimulus_duration'] = rt;
        trialData['trial_duration'] = rt;
        trialData['imageSelected'] = `${__imageMouseOver.imgBase}${__imageMouseOver.nScale[__imageMouseOver.sliceSelected]}.jpg`
        trialData['indexSelected'] = __imageMouseOver.sliceSelected;
        // turn off listeners
        $(document).off('mousemove');
        $(document).off('click');
        // clean up variable namespaces
        delete window.__imageMouseOver
        delete __listenerBools;
        // clean up scale
        $(""#scale-container"").remove();
        // finish the trial with trial data
        jsPsych.finishTrial(trialData);
      };
    };
  
    function verticalLineInit(event) {
      var mouseX = Math.floor(event.pageX);
      if (mouseX <= __imageMouseOver.lineSlice) {
        $(""#vertLine"").remove();
        $(""#linePrompt"").remove();
        $(""#jspsych-image-slider-response_noButton-stimulus > img"").css({
          ""filter"":""blur(0px)"",
          ""visibility"": ""visible"",
        });
        $('#jspsych-content > p').css(""visibility"", ""visible"");
        __listenerBools['mousemove'] = true;
        // turn off THIS mouse move listener
        $(document).off(""mousemove"");
        // turn on the mouse move listener that changes the image
        $(document).mousemove(changeImg);
        // add mouse click listener
        $(document).on('click', clickHandler);
      };
    };
  
    // turn on the vertical line mouse move listener
    $(document).mousemove(verticalLineInit);
  }","[object Object]","0","","Continue","4059","4059","true","red43.jpg","42","600","red","2","[6,12]","9","giraffe","6","red"
"html-keyboard-response","27","90680","0.0-27.0","gal","null","","","","<p style=""font-size: 48px;""> + </p>","null","fixation","","","","","","","","","","","","","","","","","","","","","","","","red"
"html-keyboard-response","28","92195","0.0-28.0","gal","null","","","","<span class='grid'><div> </div> <div> </div> <div class='red' style='background-position:2700% 0%;margin-top:40px'></div> <div> </div> <div class='red' style='background-position:2400% 0%;margin-top:32px'></div> <div> </div> <div class='red' style='background-position:2000% 0%;margin-top:50px'></div> <div> </div> <div class='red' style='background-position:1900% 0%;margin-top:38px'></div> <div class='red' style='background-position:2200% 0%;margin-top:41px'></div> <div> </div> <div> </div> <div> </div> <div> </div> <div class='red' style='background-position:2600% 0%;margin-top:27px'></div> <div class='red' style='background-position:2900% 0%;margin-top:35px'></div> <div class='red' style='background-position:1700% 0%;margin-top:36px'></div></span>","null","stimulus","{""index"":0,""type"":""experimental"",""array_length"":2,""meanVal"":9,""color"":""red""}","","","","","","","","","","","","","","","","","","","","","","","red"
"image-slider-response_noButton","29","94949","0.0-29.0","gal","2753","","","","img/red1.jpg,img/red2.jpg,img/red3.jpg,img/red4.jpg,img/red5.jpg,img/red6.jpg,img/red7.jpg,img/red8.jpg,img/red9.jpg,img/red10.jpg,img/red11.jpg,img/red12.jpg,img/red13.jpg,img/red14.jpg,img/red15.jpg,img/red16.jpg,img/red17.jpg,img/red18.jpg,img/red19.jpg,img/red20.jpg,img/red21.jpg,img/red22.jpg,img/red23.jpg,img/red24.jpg,img/red25.jpg,img/red26.jpg,img/red27.jpg,img/red28.jpg,img/red29.jpg,img/red30.jpg,img/red31.jpg,img/red32.jpg,img/red33.jpg,img/red34.jpg,img/red35.jpg,img/red36.jpg,img/red37.jpg,img/red38.jpg,img/red39.jpg,img/red40.jpg,img/red41.jpg,img/red42.jpg,img/red43.jpg,img/red44.jpg,img/red45.jpg,img/red46.jpg,img/red47.jpg,img/red48.jpg,img/red49.jpg,img/red50.jpg","","response","{""index"":1,""type"":""experimental"",""array_length"":8,""meanVal"":23,""color"":""red""}","image-slider-response_noButton","<p>how red was the stimulus in your opinion?</p>","1","50","0","function morphedScaleRed() {
    // defining a few helper functions
    function nrange(size, startAt = 0) {
      return [...Array(size).keys()].map(i => i + startAt);
    };
  
    function fillArray(value, len) {
      var arr = [];
      for (var i = 0; i < len; i++) {
        arr.push(value);
      }
      return arr;
    };
  
    function generateSlices(vWidth, nSlices) {
      var step = vWidth*0.6/(nSlices-2);
      var stepArray = fillArray(step,nSlices-2)
      stepArray.unshift(0.2*vWidth)
      stepArray.push(0.2*vWidth)
  
      var bounds = [];
      
      for (var i = 0; i < nSlices; i++) {
        if (i==0) {
          bounds.push([(i*stepArray[i]), (i*stepArray[i])+stepArray[i]])
        } else if (i>0 && i!=nSlices-1) {
          bounds.push([(i*stepArray[i]+0.2*vWidth), (i*stepArray[i])+stepArray[i]+0.2*vWidth])
        } else {
          bounds.push([(vWidth-0.2*vWidth), vWidth])  
        }
      };
      return bounds;
    };
    
    // start trial timer
    var startTime = (new Date()).getTime();
    // get trial data
    var trialData = jsPsych.currentTrial();
  
    // remove the picture scales and the slider
    $('.jspsych-image-slider-response_noButton-container').css(""visibility"", ""hidden"");
    $('img').remove();
    var imgScale = getScaleRed();
    
    // derive the letter of the image filenames
    var imgBase = imgScale[0].split('img/')[1].split('.jpg')[0].replace(/\d+/g, '');
    
    // split the number of the image filenames off from the rest of it
    var nScale = [];
    for (var i = 0; i < imgScale.length-1; i++) {
      var n = imgScale[i].split('img/')[1].split('.jpg')[0].split(imgBase)[1];
      nScale.push(n);
    };
    
    // calculate the element width, and slice it up into sections
    var vWidth = $(document).width();
    var nSlices = nScale.length;
    var slices = generateSlices(vWidth, nSlices);
  
    // setting up initial vertical line to start the mousemove functionality
    var vHeight = $(document).height()-8;
    var lineSlice = vWidth / 10;
    var vertLine = `<div style=""border-left:black;border-style:solid;margin-left:${lineSlice}px; height:${vHeight}px;width:0px;position:absolute;"" id=""vertLine""></div>`;
    var linePrompt = `<div id=""linePrompt""><div style=""font-size:50px;position:absolute;margin-left:${lineSlice*1.3}px;margin-top:${vHeight/2}px""></div><div style=""position:absolute;margin-left:${lineSlice*1.2}px;margin-top:${vHeight/2}px;z-index:5;"">Move mouse left of the line to begin</div></div>`;
    $("".jspsych-content-wrapper"").prepend(vertLine);
    $("".jspsych-content-wrapper"").prepend(linePrompt);
    
    // hide prompt until the trial is begun
    $('#jspsych-content > p').css(""visibility"", ""hidden"");
  
    // initialize the central image with the most neutral one (i.e. from
    // the middle of the scale) and set the image to be blurred
    var initialImage = imgScale[0];
    $('#jspsych-image-slider-response_noButton-stimulus').append(`<img src=""${initialImage}"" style=""filter:blur(4px);visibility:hidden;"" id=""changeable-image""/>`);
  
    // ADD VISUAL SCALE SHOWING MIN/MAX
    var scaleWidth = vWidth * 0.6;
    var scaleLeft = vWidth * 0.2;
    var scaleHtml = `
      <div id=""scale-container"" style=""position:absolute; bottom:120px; left:${scaleLeft}px; width:${scaleWidth}px; height:30px; background-color:rgba(220,220,220,0.7); border-radius:5px; display:none; z-index:10;"">
        <div style=""position:absolute; left:0px; width:2px; height:30px; background-color:black;""></div>
        <div style=""position:absolute; left:0px; top:32px; font-size:12px; color:black;"">Min (1)</div>
        <div style=""position:absolute; right:0px; width:2px; height:30px; background-color:black;""></div>
        <div style=""position:absolute; right:0px; top:32px; font-size:12px; color:black;"">Max (50)</div>
        <div id=""current-marker"" style=""position:absolute; left:0px; width:2px; height:30px; background-color:red; display:none;""></div>
      </div>
    `;
    $("".jspsych-content-wrapper"").append(scaleHtml);
  
    // workaround with a global variable
    window.__imageMouseOver = {
      lineSlice: lineSlice,
      slices: slices,
      nScale: nScale,
      imgBase: imgBase,
      startTime: startTime,
      trialData: trialData,
      sliceSelected: 0,
    };
    var __listenerBools = {};
  
    // define mousemove event listener that changes image
    function changeImg(event) {
      var mouseX = Math.floor(event.pageX);
      
      // Show the scale after interaction begins
      $(""#scale-container"").css(""display"", ""block"");
      
      // Update current marker position based on mouse position
      var scaleWidth = $(""#scale-container"").width();
      var relativePos = Math.max(0, Math.min(mouseX - scaleLeft, scaleWidth));
      var percentPos = (relativePos / scaleWidth) * 100;
      
      $(""#current-marker"").css({
        ""left"": `${relativePos}px`,
        ""display"": ""block""
      });
      
      for (var i = 0; i < __imageMouseOver.slices.length; i++) {
        // if mouse X position is within the bounds of the X axis slice,
        // change the image to one that is indexed to that slice
        if (mouseX >= __imageMouseOver.slices[i][0] && mouseX <= __imageMouseOver.slices[i][1]) {
          // capture which slice is selected
          __imageMouseOver.sliceSelected = i;
          // update img src to the picture that corresponds to that slice
          $('#changeable-image').attr('src', `img/${__imageMouseOver.imgBase}${__imageMouseOver.nScale[i]}.jpg`);
        }
      };
    };
    
    // define the click listener that ends trial
    function clickHandler(event) {
      if (__listenerBools['mousemove']) {
        // derive trial data
        var trialData = __imageMouseOver.trialData;
        var end_time = (new Date()).getTime();
        var rt = end_time - __imageMouseOver.startTime;
        trialData['rt'] = rt;
        trialData['stimulus_duration'] = rt;
        trialData['trial_duration'] = rt;
        trialData['imageSelected'] = `${__imageMouseOver.imgBase}${__imageMouseOver.nScale[__imageMouseOver.sliceSelected]}.jpg`
        trialData['indexSelected'] = __imageMouseOver.sliceSelected;
        // turn off listeners
        $(document).off('mousemove');
        $(document).off('click');
        // clean up variable namespaces
        delete window.__imageMouseOver
        delete __listenerBools;
        // clean up scale
        $(""#scale-container"").remove();
        // finish the trial with trial data
        jsPsych.finishTrial(trialData);
      };
    };
  
    function verticalLineInit(event) {
      var mouseX = Math.floor(event.pageX);
      if (mouseX <= __imageMouseOver.lineSlice) {
        $(""#vertLine"").remove();
        $(""#linePrompt"").remove();
        $(""#jspsych-image-slider-response_noButton-stimulus > img"").css({
          ""filter"":""blur(0px)"",
          ""visibility"": ""visible"",
        });
        $('#jspsych-content > p').css(""visibility"", ""visible"");
        __listenerBools['mousemove'] = true;
        // turn off THIS mouse move listener
        $(document).off(""mousemove"");
        // turn on the mouse move listener that changes the image
        $(document).mousemove(changeImg);
        // add mouse click listener
        $(document).on('click', clickHandler);
      };
    };
  
    // turn on the vertical line mouse move listener
    $(document).mousemove(verticalLineInit);
  }","[object Object]","0","","Continue","2753","2753","true","red27.jpg","26","500","red","8","[17,19,20,22,24,26,27,29]","23","giraffe","7","red"
"html-keyboard-response","30","95454","0.0-30.0","gal","null","","","","<p style=""font-size: 48px;""> + </p>","null","fixation","","","","","","","","","","","","","","","","","","","","","","","","red"
"html-keyboard-response","31","96965","0.0-31.0","gal","null","","","","<span class='grid'><div> </div> <div> </div> <div> </div> <div> </div> <div class='red' style='background-position:1600% 0%;margin-top:41px'></div> <div> </div> <div> </div> <div> </div> <div> </div> <div> </div> <div> </div> <div> </div> <div> </div> <div class='red' style='background-position:2200% 0%;margin-top:29px'></div></span>","null","stimulus","{""index"":1,""type"":""experimental"",""array_length"":8,""meanVal"":23,""color"":""red""}","","","","","","","","","","","","","","","","","","","","","","","red"
"image-slider-response_noButton","32","99132","0.0-32.0","gal","2166","","","","img/red1.jpg,img/red2.jpg,img/red3.jpg,img/red4.jpg,img/red5.jpg,img/red6.jpg,img/red7.jpg,img/red8.jpg,img/red9.jpg,img/red10.jpg,img/red11.jpg,img/red12.jpg,img/red13.jpg,img/red14.jpg,img/red15.jpg,img/red16.jpg,img/red17.jpg,img/red18.jpg,img/red19.jpg,img/red20.jpg,img/red21.jpg,img/red22.jpg,img/red23.jpg,img/red24.jpg,img/red25.jpg,img/red26.jpg,img/red27.jpg,img/red28.jpg,img/red29.jpg,img/red30.jpg,img/red31.jpg,img/red32.jpg,img/red33.jpg,img/red34.jpg,img/red35.jpg,img/red36.jpg,img/red37.jpg,img/red38.jpg,img/red39.jpg,img/red40.jpg,img/red41.jpg,img/red42.jpg,img/red43.jpg,img/red44.jpg,img/red45.jpg,img/red46.jpg,img/red47.jpg,img/red48.jpg,img/red49.jpg,img/red50.jpg","","response","{""index"":2,""type"":""experimental"",""array_length"":2,""meanVal"":19,""color"":""red""}","image-slider-response_noButton","<p>how red was the stimulus in your opinion?</p>","1","50","0","function morphedScaleRed() {
    // defining a few helper functions
    function nrange(size, startAt = 0) {
      return [...Array(size).keys()].map(i => i + startAt);
    };
  
    function fillArray(value, len) {
      var arr = [];
      for (var i = 0; i < len; i++) {
        arr.push(value);
      }
      return arr;
    };
  
    function generateSlices(vWidth, nSlices) {
      var step = vWidth*0.6/(nSlices-2);
      var stepArray = fillArray(step,nSlices-2)
      stepArray.unshift(0.2*vWidth)
      stepArray.push(0.2*vWidth)
  
      var bounds = [];
      
      for (var i = 0; i < nSlices; i++) {
        if (i==0) {
          bounds.push([(i*stepArray[i]), (i*stepArray[i])+stepArray[i]])
        } else if (i>0 && i!=nSlices-1) {
          bounds.push([(i*stepArray[i]+0.2*vWidth), (i*stepArray[i])+stepArray[i]+0.2*vWidth])
        } else {
          bounds.push([(vWidth-0.2*vWidth), vWidth])  
        }
      };
      return bounds;
    };
    
    // start trial timer
    var startTime = (new Date()).getTime();
    // get trial data
    var trialData = jsPsych.currentTrial();
  
    // remove the picture scales and the slider
    $('.jspsych-image-slider-response_noButton-container').css(""visibility"", ""hidden"");
    $('img').remove();
    var imgScale = getScaleRed();
    
    // derive the letter of the image filenames
    var imgBase = imgScale[0].split('img/')[1].split('.jpg')[0].replace(/\d+/g, '');
    
    // split the number of the image filenames off from the rest of it
    var nScale = [];
    for (var i = 0; i < imgScale.length-1; i++) {
      var n = imgScale[i].split('img/')[1].split('.jpg')[0].split(imgBase)[1];
      nScale.push(n);
    };
    
    // calculate the element width, and slice it up into sections
    var vWidth = $(document).width();
    var nSlices = nScale.length;
    var slices = generateSlices(vWidth, nSlices);
  
    // setting up initial vertical line to start the mousemove functionality
    var vHeight = $(document).height()-8;
    var lineSlice = vWidth / 10;
    var vertLine = `<div style=""border-left:black;border-style:solid;margin-left:${lineSlice}px; height:${vHeight}px;width:0px;position:absolute;"" id=""vertLine""></div>`;
    var linePrompt = `<div id=""linePrompt""><div style=""font-size:50px;position:absolute;margin-left:${lineSlice*1.3}px;margin-top:${vHeight/2}px""></div><div style=""position:absolute;margin-left:${lineSlice*1.2}px;margin-top:${vHeight/2}px;z-index:5;"">Move mouse left of the line to begin</div></div>`;
    $("".jspsych-content-wrapper"").prepend(vertLine);
    $("".jspsych-content-wrapper"").prepend(linePrompt);
    
    // hide prompt until the trial is begun
    $('#jspsych-content > p').css(""visibility"", ""hidden"");
  
    // initialize the central image with the most neutral one (i.e. from
    // the middle of the scale) and set the image to be blurred
    var initialImage = imgScale[0];
    $('#jspsych-image-slider-response_noButton-stimulus').append(`<img src=""${initialImage}"" style=""filter:blur(4px);visibility:hidden;"" id=""changeable-image""/>`);
  
    // ADD VISUAL SCALE SHOWING MIN/MAX
    var scaleWidth = vWidth * 0.6;
    var scaleLeft = vWidth * 0.2;
    var scaleHtml = `
      <div id=""scale-container"" style=""position:absolute; bottom:120px; left:${scaleLeft}px; width:${scaleWidth}px; height:30px; background-color:rgba(220,220,220,0.7); border-radius:5px; display:none; z-index:10;"">
        <div style=""position:absolute; left:0px; width:2px; height:30px; background-color:black;""></div>
        <div style=""position:absolute; left:0px; top:32px; font-size:12px; color:black;"">Min (1)</div>
        <div style=""position:absolute; right:0px; width:2px; height:30px; background-color:black;""></div>
        <div style=""position:absolute; right:0px; top:32px; font-size:12px; color:black;"">Max (50)</div>
        <div id=""current-marker"" style=""position:absolute; left:0px; width:2px; height:30px; background-color:red; display:none;""></div>
      </div>
    `;
    $("".jspsych-content-wrapper"").append(scaleHtml);
  
    // workaround with a global variable
    window.__imageMouseOver = {
      lineSlice: lineSlice,
      slices: slices,
      nScale: nScale,
      imgBase: imgBase,
      startTime: startTime,
      trialData: trialData,
      sliceSelected: 0,
    };
    var __listenerBools = {};
  
    // define mousemove event listener that changes image
    function changeImg(event) {
      var mouseX = Math.floor(event.pageX);
      
      // Show the scale after interaction begins
      $(""#scale-container"").css(""display"", ""block"");
      
      // Update current marker position based on mouse position
      var scaleWidth = $(""#scale-container"").width();
      var relativePos = Math.max(0, Math.min(mouseX - scaleLeft, scaleWidth));
      var percentPos = (relativePos / scaleWidth) * 100;
      
      $(""#current-marker"").css({
        ""left"": `${relativePos}px`,
        ""display"": ""block""
      });
      
      for (var i = 0; i < __imageMouseOver.slices.length; i++) {
        // if mouse X position is within the bounds of the X axis slice,
        // change the image to one that is indexed to that slice
        if (mouseX >= __imageMouseOver.slices[i][0] && mouseX <= __imageMouseOver.slices[i][1]) {
          // capture which slice is selected
          __imageMouseOver.sliceSelected = i;
          // update img src to the picture that corresponds to that slice
          $('#changeable-image').attr('src', `img/${__imageMouseOver.imgBase}${__imageMouseOver.nScale[i]}.jpg`);
        }
      };
    };
    
    // define the click listener that ends trial
    function clickHandler(event) {
      if (__listenerBools['mousemove']) {
        // derive trial data
        var trialData = __imageMouseOver.trialData;
        var end_time = (new Date()).getTime();
        var rt = end_time - __imageMouseOver.startTime;
        trialData['rt'] = rt;
        trialData['stimulus_duration'] = rt;
        trialData['trial_duration'] = rt;
        trialData['imageSelected'] = `${__imageMouseOver.imgBase}${__imageMouseOver.nScale[__imageMouseOver.sliceSelected]}.jpg`
        trialData['indexSelected'] = __imageMouseOver.sliceSelected;
        // turn off listeners
        $(document).off('mousemove');
        $(document).off('click');
        // clean up variable namespaces
        delete window.__imageMouseOver
        delete __listenerBools;
        // clean up scale
        $(""#scale-container"").remove();
        // finish the trial with trial data
        jsPsych.finishTrial(trialData);
      };
    };
  
    function verticalLineInit(event) {
      var mouseX = Math.floor(event.pageX);
      if (mouseX <= __imageMouseOver.lineSlice) {
        $(""#vertLine"").remove();
        $(""#linePrompt"").remove();
        $(""#jspsych-image-slider-response_noButton-stimulus > img"").css({
          ""filter"":""blur(0px)"",
          ""visibility"": ""visible"",
        });
        $('#jspsych-content > p').css(""visibility"", ""visible"");
        __listenerBools['mousemove'] = true;
        // turn off THIS mouse move listener
        $(document).off(""mousemove"");
        // turn on the mouse move listener that changes the image
        $(document).mousemove(changeImg);
        // add mouse click listener
        $(document).on('click', clickHandler);
      };
    };
  
    // turn on the vertical line mouse move listener
    $(document).mousemove(verticalLineInit);
  }","[object Object]","0","","Continue","2166","2166","true","red36.jpg","35","500","red","2","[16,22]","19","giraffe","8","red"
"html-keyboard-response","33","99633","0.0-33.0","gal","null","","","","<p style=""font-size: 48px;""> + </p>","null","fixation","","","","","","","","","","","","","","","","","","","","","","","","red"
"html-keyboard-response","34","101139","0.0-34.0","gal","null","","","","<span class='grid'><div class='red' style='background-position:900% 0%;margin-top:44px'></div> <div class='red' style='background-position:1300% 0%;margin-top:43px'></div> <div> </div> <div class='red' style='background-position:1800% 0%;margin-top:36px'></div> <div class='red' style='background-position:500% 0%;margin-top:23px'></div> <div class='red' style='background-position:1600% 0%;margin-top:31px'></div> <div class='red' style='background-position:700% 0%;margin-top:26px'></div> <div class='red' style='background-position:1100% 0%;margin-top:41px'></div> <div class='red' style='background-position:1200% 0%;margin-top:36px'></div> <div> </div> <div class='red' style='background-position:1200% 0%;margin-top:39px'></div> <div class='red' style='background-position:1500% 0%;margin-top:28px'></div> <div> </div> <div> </div> <div> </div> <div class='red' style='background-position:1000% 0%;margin-top:22px'></div> <div class='red' style='background-position:400% 0%;margin-top:34px'></div> <div> </div> <div> </div></span>","null","stimulus","{""index"":2,""type"":""experimental"",""array_length"":2,""meanVal"":19,""color"":""red""}","","","","","","","","","","","","","","","","","","","","","","","red"
"image-slider-response_noButton","35","102804","0.0-35.0","gal","1665","","","","img/red1.jpg,img/red2.jpg,img/red3.jpg,img/red4.jpg,img/red5.jpg,img/red6.jpg,img/red7.jpg,img/red8.jpg,img/red9.jpg,img/red10.jpg,img/red11.jpg,img/red12.jpg,img/red13.jpg,img/red14.jpg,img/red15.jpg,img/red16.jpg,img/red17.jpg,img/red18.jpg,img/red19.jpg,img/red20.jpg,img/red21.jpg,img/red22.jpg,img/red23.jpg,img/red24.jpg,img/red25.jpg,img/red26.jpg,img/red27.jpg,img/red28.jpg,img/red29.jpg,img/red30.jpg,img/red31.jpg,img/red32.jpg,img/red33.jpg,img/red34.jpg,img/red35.jpg,img/red36.jpg,img/red37.jpg,img/red38.jpg,img/red39.jpg,img/red40.jpg,img/red41.jpg,img/red42.jpg,img/red43.jpg,img/red44.jpg,img/red45.jpg,img/red46.jpg,img/red47.jpg,img/red48.jpg,img/red49.jpg,img/red50.jpg","","response","{""index"":3,""type"":""experimental"",""array_length"":12,""meanVal"":11,""color"":""red""}","image-slider-response_noButton","<p>how red was the stimulus in your opinion?</p>","1","50","0","function morphedScaleRed() {
    // defining a few helper functions
    function nrange(size, startAt = 0) {
      return [...Array(size).keys()].map(i => i + startAt);
    };
  
    function fillArray(value, len) {
      var arr = [];
      for (var i = 0; i < len; i++) {
        arr.push(value);
      }
      return arr;
    };
  
    function generateSlices(vWidth, nSlices) {
      var step = vWidth*0.6/(nSlices-2);
      var stepArray = fillArray(step,nSlices-2)
      stepArray.unshift(0.2*vWidth)
      stepArray.push(0.2*vWidth)
  
      var bounds = [];
      
      for (var i = 0; i < nSlices; i++) {
        if (i==0) {
          bounds.push([(i*stepArray[i]), (i*stepArray[i])+stepArray[i]])
        } else if (i>0 && i!=nSlices-1) {
          bounds.push([(i*stepArray[i]+0.2*vWidth), (i*stepArray[i])+stepArray[i]+0.2*vWidth])
        } else {
          bounds.push([(vWidth-0.2*vWidth), vWidth])  
        }
      };
      return bounds;
    };
    
    // start trial timer
    var startTime = (new Date()).getTime();
    // get trial data
    var trialData = jsPsych.currentTrial();
  
    // remove the picture scales and the slider
    $('.jspsych-image-slider-response_noButton-container').css(""visibility"", ""hidden"");
    $('img').remove();
    var imgScale = getScaleRed();
    
    // derive the letter of the image filenames
    var imgBase = imgScale[0].split('img/')[1].split('.jpg')[0].replace(/\d+/g, '');
    
    // split the number of the image filenames off from the rest of it
    var nScale = [];
    for (var i = 0; i < imgScale.length-1; i++) {
      var n = imgScale[i].split('img/')[1].split('.jpg')[0].split(imgBase)[1];
      nScale.push(n);
    };
    
    // calculate the element width, and slice it up into sections
    var vWidth = $(document).width();
    var nSlices = nScale.length;
    var slices = generateSlices(vWidth, nSlices);
  
    // setting up initial vertical line to start the mousemove functionality
    var vHeight = $(document).height()-8;
    var lineSlice = vWidth / 10;
    var vertLine = `<div style=""border-left:black;border-style:solid;margin-left:${lineSlice}px; height:${vHeight}px;width:0px;position:absolute;"" id=""vertLine""></div>`;
    var linePrompt = `<div id=""linePrompt""><div style=""font-size:50px;position:absolute;margin-left:${lineSlice*1.3}px;margin-top:${vHeight/2}px""></div><div style=""position:absolute;margin-left:${lineSlice*1.2}px;margin-top:${vHeight/2}px;z-index:5;"">Move mouse left of the line to begin</div></div>`;
    $("".jspsych-content-wrapper"").prepend(vertLine);
    $("".jspsych-content-wrapper"").prepend(linePrompt);
    
    // hide prompt until the trial is begun
    $('#jspsych-content > p').css(""visibility"", ""hidden"");
  
    // initialize the central image with the most neutral one (i.e. from
    // the middle of the scale) and set the image to be blurred
    var initialImage = imgScale[0];
    $('#jspsych-image-slider-response_noButton-stimulus').append(`<img src=""${initialImage}"" style=""filter:blur(4px);visibility:hidden;"" id=""changeable-image""/>`);
  
    // ADD VISUAL SCALE SHOWING MIN/MAX
    var scaleWidth = vWidth * 0.6;
    var scaleLeft = vWidth * 0.2;
    var scaleHtml = `
      <div id=""scale-container"" style=""position:absolute; bottom:120px; left:${scaleLeft}px; width:${scaleWidth}px; height:30px; background-color:rgba(220,220,220,0.7); border-radius:5px; display:none; z-index:10;"">
        <div style=""position:absolute; left:0px; width:2px; height:30px; background-color:black;""></div>
        <div style=""position:absolute; left:0px; top:32px; font-size:12px; color:black;"">Min (1)</div>
        <div style=""position:absolute; right:0px; width:2px; height:30px; background-color:black;""></div>
        <div style=""position:absolute; right:0px; top:32px; font-size:12px; color:black;"">Max (50)</div>
        <div id=""current-marker"" style=""position:absolute; left:0px; width:2px; height:30px; background-color:red; display:none;""></div>
      </div>
    `;
    $("".jspsych-content-wrapper"").append(scaleHtml);
  
    // workaround with a global variable
    window.__imageMouseOver = {
      lineSlice: lineSlice,
      slices: slices,
      nScale: nScale,
      imgBase: imgBase,
      startTime: startTime,
      trialData: trialData,
      sliceSelected: 0,
    };
    var __listenerBools = {};
  
    // define mousemove event listener that changes image
    function changeImg(event) {
      var mouseX = Math.floor(event.pageX);
      
      // Show the scale after interaction begins
      $(""#scale-container"").css(""display"", ""block"");
      
      // Update current marker position based on mouse position
      var scaleWidth = $(""#scale-container"").width();
      var relativePos = Math.max(0, Math.min(mouseX - scaleLeft, scaleWidth));
      var percentPos = (relativePos / scaleWidth) * 100;
      
      $(""#current-marker"").css({
        ""left"": `${relativePos}px`,
        ""display"": ""block""
      });
      
      for (var i = 0; i < __imageMouseOver.slices.length; i++) {
        // if mouse X position is within the bounds of the X axis slice,
        // change the image to one that is indexed to that slice
        if (mouseX >= __imageMouseOver.slices[i][0] && mouseX <= __imageMouseOver.slices[i][1]) {
          // capture which slice is selected
          __imageMouseOver.sliceSelected = i;
          // update img src to the picture that corresponds to that slice
          $('#changeable-image').attr('src', `img/${__imageMouseOver.imgBase}${__imageMouseOver.nScale[i]}.jpg`);
        }
      };
    };
    
    // define the click listener that ends trial
    function clickHandler(event) {
      if (__listenerBools['mousemove']) {
        // derive trial data
        var trialData = __imageMouseOver.trialData;
        var end_time = (new Date()).getTime();
        var rt = end_time - __imageMouseOver.startTime;
        trialData['rt'] = rt;
        trialData['stimulus_duration'] = rt;
        trialData['trial_duration'] = rt;
        trialData['imageSelected'] = `${__imageMouseOver.imgBase}${__imageMouseOver.nScale[__imageMouseOver.sliceSelected]}.jpg`
        trialData['indexSelected'] = __imageMouseOver.sliceSelected;
        // turn off listeners
        $(document).off('mousemove');
        $(document).off('click');
        // clean up variable namespaces
        delete window.__imageMouseOver
        delete __listenerBools;
        // clean up scale
        $(""#scale-container"").remove();
        // finish the trial with trial data
        jsPsych.finishTrial(trialData);
      };
    };
  
    function verticalLineInit(event) {
      var mouseX = Math.floor(event.pageX);
      if (mouseX <= __imageMouseOver.lineSlice) {
        $(""#vertLine"").remove();
        $(""#linePrompt"").remove();
        $(""#jspsych-image-slider-response_noButton-stimulus > img"").css({
          ""filter"":""blur(0px)"",
          ""visibility"": ""visible"",
        });
        $('#jspsych-content > p').css(""visibility"", ""visible"");
        __listenerBools['mousemove'] = true;
        // turn off THIS mouse move listener
        $(document).off(""mousemove"");
        // turn on the mouse move listener that changes the image
        $(document).mousemove(changeImg);
        // add mouse click listener
        $(document).on('click', clickHandler);
      };
    };
  
    // turn on the vertical line mouse move listener
    $(document).mousemove(verticalLineInit);
  }","[object Object]","0","","Continue","1665","1665","true","red41.jpg","40","500","red","12","[4,7,5,9,11,10,12,12,13,15,16,18]","11","giraffe","9","red"
"html-keyboard-response","36","103319","0.0-36.0","gal","null","","","","<p style=""font-size: 48px;""> + </p>","null","fixation","","","","","","","","","","","","","","","","","","","","","","","","red"
"html-keyboard-response","37","104820","0.0-37.0","gal","null","","","","<span class='grid'><div> </div> <div class='red' style='background-position:3100% 0%;margin-top:43px'></div> <div class='red' style='background-position:2500% 0%;margin-top:49px'></div> <div class='red' style='background-position:2800% 0%;margin-top:23px'></div> <div class='red' style='background-position:1900% 0%;margin-top:41px'></div> <div class='red' style='background-position:3000% 0%;margin-top:30px'></div> <div> </div> <div class='red' style='background-position:2700% 0%;margin-top:32px'></div> <div class='red' style='background-position:3300% 0%;margin-top:27px'></div> <div class='red' style='background-position:2600% 0%;margin-top:50px'></div> <div class='red' style='background-position:2400% 0%;margin-top:48px'></div> <div class='red' style='background-position:2000% 0%;margin-top:37px'></div> <div class='red' style='background-position:2700% 0%;margin-top:47px'></div> <div> </div> <div> </div> <div class='red' style='background-position:2200% 0%;margin-top:34px'></div> <div> </div> <div> </div> <div> </div></span>","null","stimulus","{""index"":3,""type"":""experimental"",""array_length"":12,""meanVal"":11,""color"":""red""}","","","","","","","","","","","","","","","","","","","","","","","red"
"image-slider-response_noButton","38","106540","0.0-38.0","gal","1719","","","","img/red1.jpg,img/red2.jpg,img/red3.jpg,img/red4.jpg,img/red5.jpg,img/red6.jpg,img/red7.jpg,img/red8.jpg,img/red9.jpg,img/red10.jpg,img/red11.jpg,img/red12.jpg,img/red13.jpg,img/red14.jpg,img/red15.jpg,img/red16.jpg,img/red17.jpg,img/red18.jpg,img/red19.jpg,img/red20.jpg,img/red21.jpg,img/red22.jpg,img/red23.jpg,img/red24.jpg,img/red25.jpg,img/red26.jpg,img/red27.jpg,img/red28.jpg,img/red29.jpg,img/red30.jpg,img/red31.jpg,img/red32.jpg,img/red33.jpg,img/red34.jpg,img/red35.jpg,img/red36.jpg,img/red37.jpg,img/red38.jpg,img/red39.jpg,img/red40.jpg,img/red41.jpg,img/red42.jpg,img/red43.jpg,img/red44.jpg,img/red45.jpg,img/red46.jpg,img/red47.jpg,img/red48.jpg,img/red49.jpg,img/red50.jpg","","response","{""index"":4,""type"":""experimental"",""array_length"":12,""meanVal"":26,""color"":""red""}","image-slider-response_noButton","<p>how red was the stimulus in your opinion?</p>","1","50","0","function morphedScaleRed() {
    // defining a few helper functions
    function nrange(size, startAt = 0) {
      return [...Array(size).keys()].map(i => i + startAt);
    };
  
    function fillArray(value, len) {
      var arr = [];
      for (var i = 0; i < len; i++) {
        arr.push(value);
      }
      return arr;
    };
  
    function generateSlices(vWidth, nSlices) {
      var step = vWidth*0.6/(nSlices-2);
      var stepArray = fillArray(step,nSlices-2)
      stepArray.unshift(0.2*vWidth)
      stepArray.push(0.2*vWidth)
  
      var bounds = [];
      
      for (var i = 0; i < nSlices; i++) {
        if (i==0) {
          bounds.push([(i*stepArray[i]), (i*stepArray[i])+stepArray[i]])
        } else if (i>0 && i!=nSlices-1) {
          bounds.push([(i*stepArray[i]+0.2*vWidth), (i*stepArray[i])+stepArray[i]+0.2*vWidth])
        } else {
          bounds.push([(vWidth-0.2*vWidth), vWidth])  
        }
      };
      return bounds;
    };
    
    // start trial timer
    var startTime = (new Date()).getTime();
    // get trial data
    var trialData = jsPsych.currentTrial();
  
    // remove the picture scales and the slider
    $('.jspsych-image-slider-response_noButton-container').css(""visibility"", ""hidden"");
    $('img').remove();
    var imgScale = getScaleRed();
    
    // derive the letter of the image filenames
    var imgBase = imgScale[0].split('img/')[1].split('.jpg')[0].replace(/\d+/g, '');
    
    // split the number of the image filenames off from the rest of it
    var nScale = [];
    for (var i = 0; i < imgScale.length-1; i++) {
      var n = imgScale[i].split('img/')[1].split('.jpg')[0].split(imgBase)[1];
      nScale.push(n);
    };
    
    // calculate the element width, and slice it up into sections
    var vWidth = $(document).width();
    var nSlices = nScale.length;
    var slices = generateSlices(vWidth, nSlices);
  
    // setting up initial vertical line to start the mousemove functionality
    var vHeight = $(document).height()-8;
    var lineSlice = vWidth / 10;
    var vertLine = `<div style=""border-left:black;border-style:solid;margin-left:${lineSlice}px; height:${vHeight}px;width:0px;position:absolute;"" id=""vertLine""></div>`;
    var linePrompt = `<div id=""linePrompt""><div style=""font-size:50px;position:absolute;margin-left:${lineSlice*1.3}px;margin-top:${vHeight/2}px""></div><div style=""position:absolute;margin-left:${lineSlice*1.2}px;margin-top:${vHeight/2}px;z-index:5;"">Move mouse left of the line to begin</div></div>`;
    $("".jspsych-content-wrapper"").prepend(vertLine);
    $("".jspsych-content-wrapper"").prepend(linePrompt);
    
    // hide prompt until the trial is begun
    $('#jspsych-content > p').css(""visibility"", ""hidden"");
  
    // initialize the central image with the most neutral one (i.e. from
    // the middle of the scale) and set the image to be blurred
    var initialImage = imgScale[0];
    $('#jspsych-image-slider-response_noButton-stimulus').append(`<img src=""${initialImage}"" style=""filter:blur(4px);visibility:hidden;"" id=""changeable-image""/>`);
  
    // ADD VISUAL SCALE SHOWING MIN/MAX
    var scaleWidth = vWidth * 0.6;
    var scaleLeft = vWidth * 0.2;
    var scaleHtml = `
      <div id=""scale-container"" style=""position:absolute; bottom:120px; left:${scaleLeft}px; width:${scaleWidth}px; height:30px; background-color:rgba(220,220,220,0.7); border-radius:5px; display:none; z-index:10;"">
        <div style=""position:absolute; left:0px; width:2px; height:30px; background-color:black;""></div>
        <div style=""position:absolute; left:0px; top:32px; font-size:12px; color:black;"">Min (1)</div>
        <div style=""position:absolute; right:0px; width:2px; height:30px; background-color:black;""></div>
        <div style=""position:absolute; right:0px; top:32px; font-size:12px; color:black;"">Max (50)</div>
        <div id=""current-marker"" style=""position:absolute; left:0px; width:2px; height:30px; background-color:red; display:none;""></div>
      </div>
    `;
    $("".jspsych-content-wrapper"").append(scaleHtml);
  
    // workaround with a global variable
    window.__imageMouseOver = {
      lineSlice: lineSlice,
      slices: slices,
      nScale: nScale,
      imgBase: imgBase,
      startTime: startTime,
      trialData: trialData,
      sliceSelected: 0,
    };
    var __listenerBools = {};
  
    // define mousemove event listener that changes image
    function changeImg(event) {
      var mouseX = Math.floor(event.pageX);
      
      // Show the scale after interaction begins
      $(""#scale-container"").css(""display"", ""block"");
      
      // Update current marker position based on mouse position
      var scaleWidth = $(""#scale-container"").width();
      var relativePos = Math.max(0, Math.min(mouseX - scaleLeft, scaleWidth));
      var percentPos = (relativePos / scaleWidth) * 100;
      
      $(""#current-marker"").css({
        ""left"": `${relativePos}px`,
        ""display"": ""block""
      });
      
      for (var i = 0; i < __imageMouseOver.slices.length; i++) {
        // if mouse X position is within the bounds of the X axis slice,
        // change the image to one that is indexed to that slice
        if (mouseX >= __imageMouseOver.slices[i][0] && mouseX <= __imageMouseOver.slices[i][1]) {
          // capture which slice is selected
          __imageMouseOver.sliceSelected = i;
          // update img src to the picture that corresponds to that slice
          $('#changeable-image').attr('src', `img/${__imageMouseOver.imgBase}${__imageMouseOver.nScale[i]}.jpg`);
        }
      };
    };
    
    // define the click listener that ends trial
    function clickHandler(event) {
      if (__listenerBools['mousemove']) {
        // derive trial data
        var trialData = __imageMouseOver.trialData;
        var end_time = (new Date()).getTime();
        var rt = end_time - __imageMouseOver.startTime;
        trialData['rt'] = rt;
        trialData['stimulus_duration'] = rt;
        trialData['trial_duration'] = rt;
        trialData['imageSelected'] = `${__imageMouseOver.imgBase}${__imageMouseOver.nScale[__imageMouseOver.sliceSelected]}.jpg`
        trialData['indexSelected'] = __imageMouseOver.sliceSelected;
        // turn off listeners
        $(document).off('mousemove');
        $(document).off('click');
        // clean up variable namespaces
        delete window.__imageMouseOver
        delete __listenerBools;
        // clean up scale
        $(""#scale-container"").remove();
        // finish the trial with trial data
        jsPsych.finishTrial(trialData);
      };
    };
  
    function verticalLineInit(event) {
      var mouseX = Math.floor(event.pageX);
      if (mouseX <= __imageMouseOver.lineSlice) {
        $(""#vertLine"").remove();
        $(""#linePrompt"").remove();
        $(""#jspsych-image-slider-response_noButton-stimulus > img"").css({
          ""filter"":""blur(0px)"",
          ""visibility"": ""visible"",
        });
        $('#jspsych-content > p').css(""visibility"", ""visible"");
        __listenerBools['mousemove'] = true;
        // turn off THIS mouse move listener
        $(document).off(""mousemove"");
        // turn on the mouse move listener that changes the image
