"trial_type","trial_index","time_elapsed","internal_node_id","participant_id","rt","url","view_history","responses","stimulus","key_press","Name","config","type","prompt","step","max","start","on_load","data","min","labels","button_label","stimulus_duration","trial_duration","response_ends_trial","imageSelected","indexSelected","fixationTime","faceIdentity","array_length","array_values","meanVal","description","trial","color"
"pavlovia","0","3","0.0-0.0","zeevcheck1","","","","","","","","","","","","","","","","","","","","","","","","","","","","","","",""
"external-html","1","13554","0.0-1.0","zeevcheck1","13543","external_page.html","","","","","","","","","","","","","","","","","","","","","","","","","","","","",""
"instructions","2","23470","0.0-2.0","zeevcheck1","9915.000000000002","","[{""page_index"":0,""viewing_time"":6261.000000000002},{""page_index"":1,""viewing_time"":2343.9999999999964},{""page_index"":2,""viewing_time"":853},{""page_index"":3,""viewing_time"":456}]","","","","","","","","","","","","","","","","","","","","","","","","","","","",""
"survey-text","3","28985","0.0-3.0","zeevcheck1","5496","","","{""Q0"":""zeevcheck1""}","","","","","","","","","","","","","","","","","","","","","","","","","","",""
"instructions","4","29738","0.0-4.0","zeevcheck1","753","","[{""page_index"":0,""viewing_time"":753}]","","","","","","","","","","","","","","","","","","","","","","","","","","","",""
"survey-text","5","32820","0.0-5.0","zeevcheck1","3074","","","{""Q0"":""giraff""}","","","","","","","","","","","","","","","","","","","","","","","","","","",""
"survey-text","6","35158","0.0-6.0-0.0","zeevcheck1","2333","","","{""Q0"":""but""}","","","","","","","","","","","","","","","","","","","","","","","","","","",""
"html-keyboard-response","7","35660","0.0-7.0","zeevcheck1","null","","","","<p style=""font-size: 48px;""> + </p>","null","fixation","","","","","","","","","","","","","","","","","","","","","","","",""
"html-keyboard-response","8","37164","0.0-8.0","zeevcheck1","null","","","","<span class='grid'><div> </div> <div> </div> <div> </div> <div> </div> <div> </div> <div class='red' style='background-position:4000% 0%;margin-top:27px'></div> <div> </div> <div> </div> <div> </div> <div class='red' style='background-position:4400% 0%;margin-top:23px'></div> <div> </div> <div> </div> <div> </div> <div> </div></span>","null","stimulus","","","","","","","","","","","","","","","","","","","","","","","",""
"image-slider-response_noButton","9","39976","0.0-9.0","zeevcheck1","2806","","","","img/red1.jpg,img/red2.jpg,img/red3.jpg,img/red4.jpg,img/red5.jpg,img/red6.jpg,img/red7.jpg,img/red8.jpg,img/red9.jpg,img/red10.jpg,img/red11.jpg,img/red12.jpg,img/red13.jpg,img/red14.jpg,img/red15.jpg,img/red16.jpg,img/red17.jpg,img/red18.jpg,img/red19.jpg,img/red20.jpg,img/red21.jpg,img/red22.jpg,img/red23.jpg,img/red24.jpg,img/red25.jpg,img/red26.jpg,img/red27.jpg,img/red28.jpg,img/red29.jpg,img/red30.jpg,img/red31.jpg,img/red32.jpg,img/red33.jpg,img/red34.jpg,img/red35.jpg,img/red36.jpg,img/red37.jpg,img/red38.jpg,img/red39.jpg,img/red40.jpg,img/red41.jpg,img/red42.jpg,img/red43.jpg,img/red44.jpg,img/red45.jpg,img/red46.jpg,img/red47.jpg,img/red48.jpg,img/red49.jpg,img/red50.jpg","","response","{""index"":0,""type"":""practice"",""color"":""red""}","image-slider-response_noButton","<p>how red was the stimulus in your opinion?</p>","1","50","0","function morphedScaleRed() {
    // defining a few helper functions
    function nrange(size, startAt = 0) {
      return [...Array(size).keys()].map(i => i + startAt);
    };
  
    function fillArray(value, len) {
      var arr = [];
      for (var i = 0; i < len; i++) {
        arr.push(value);
      }
      return arr;
    };
  
    function generateSlices(vWidth, nSlices) {
      var step = vWidth*0.6/(nSlices-2);
      var stepArray = fillArray(step,nSlices-2)
      stepArray.unshift(0.2*vWidth)
      stepArray.push(0.2*vWidth)
  
      var bounds = [];
      
      for (var i = 0; i < nSlices; i++) {
        if (i==0) {
          bounds.push([(i*stepArray[i]), (i*stepArray[i])+stepArray[i]])
        } else if (i>0 && i!=nSlices-1) {
          bounds.push([(i*stepArray[i]+0.2*vWidth), (i*stepArray[i])+stepArray[i]+0.2*vWidth])
        } else {
          bounds.push([(vWidth-0.2*vWidth), vWidth])  
        }
      };
      return bounds;
    };
    
    // start trial timer
    var startTime = (new Date()).getTime();
    // get trial data
    var trialData = jsPsych.currentTrial();
  
    // remove the picture scales and the slider
    $('.jspsych-image-slider-response_noButton-container').css(""visibility"", ""hidden"");
    $('img').remove();
    var imgScale = getScaleRed();
    
    // derive the letter of the image filenames
    var imgBase = imgScale[0].split('img/')[1].split('.jpg')[0].replace(/\d+/g, '');
    
    // split the number of the image filenames off from the rest of it
    var nScale = [];
    for (var i = 0; i < imgScale.length-1; i++) {
      var n = imgScale[i].split('img/')[1].split('.jpg')[0].split(imgBase)[1];
      nScale.push(n);
    };
    
    // calculate the element width, and slice it up into sections
    var vWidth = $(document).width();
    var nSlices = nScale.length;
    var slices = generateSlices(vWidth, nSlices);
  
    // setting up initial vertical line to start the mousemove functionality
    var vHeight = $(document).height()-8;
    var lineSlice = vWidth / 10;
    var vertLine = `<div style=""border-left:black;border-style:solid;margin-left:${lineSlice}px; height:${vHeight}px;width:0px;position:absolute;"" id=""vertLine""></div>`;
    var linePrompt = `<div id=""linePrompt""><div style=""font-size:50px;position:absolute;margin-left:${lineSlice*1.3}px;margin-top:${vHeight/2}px""></div><div style=""position:absolute;margin-left:${lineSlice*1.2}px;margin-top:${vHeight/2}px;z-index:5;"">Move mouse left of the line to begin</div></div>`;
    $("".jspsych-content-wrapper"").prepend(vertLine);
    $("".jspsych-content-wrapper"").prepend(linePrompt);
    
    // hide prompt until the trial is begun
    $('#jspsych-content > p').css(""visibility"", ""hidden"");
  
    // initialize the central image with the most neutral one (i.e. from
    // the middle of the scale) and set the image to be blurred
    var initialImage = imgScale[0];
    $('#jspsych-image-slider-response_noButton-stimulus').append(`<img src=""${initialImage}"" style=""filter:blur(4px);visibility:hidden;"" id=""changeable-image""/>`);
  
    // ADD VISUAL SCALE SHOWING MIN/MAX
    var scaleWidth = vWidth * 0.6;
    var scaleLeft = vWidth * 0.2;
    var scaleHtml = `
      <div id=""scale-container"" style=""position:absolute; bottom:120px; left:${scaleLeft}px; width:${scaleWidth}px; height:30px; background-color:rgba(220,220,220,0.7); border-radius:5px; display:none; z-index:10;"">
        <div style=""position:absolute; left:0px; width:2px; height:30px; background-color:black;""></div>
        <div style=""position:absolute; left:0px; top:32px; font-size:12px; color:black;"">Min (1)</div>
        <div style=""position:absolute; right:0px; width:2px; height:30px; background-color:black;""></div>
        <div style=""position:absolute; right:0px; top:32px; font-size:12px; color:black;"">Max (50)</div>
        <div id=""current-marker"" style=""position:absolute; left:0px; width:2px; height:30px; background-color:red; display:none;""></div>
      </div>
    `;
    $("".jspsych-content-wrapper"").append(scaleHtml);
  
    // workaround with a global variable
    window.__imageMouseOver = {
      lineSlice: lineSlice,
      slices: slices,
      nScale: nScale,
      imgBase: imgBase,
      startTime: startTime,
      trialData: trialData,
      sliceSelected: 0,
    };
    var __listenerBools = {};
  
    // define mousemove event listener that changes image
    function changeImg(event) {
      var mouseX = Math.floor(event.pageX);
      
      // Show the scale after interaction begins
      $(""#scale-container"").css(""display"", ""block"");
      
      // Update current marker position based on mouse position
      var scaleWidth = $(""#scale-container"").width();
      var relativePos = Math.max(0, Math.min(mouseX - scaleLeft, scaleWidth));
      var percentPos = (relativePos / scaleWidth) * 100;
      
      $(""#current-marker"").css({
        ""left"": `${relativePos}px`,
        ""display"": ""block""
      });
      
      for (var i = 0; i < __imageMouseOver.slices.length; i++) {
        // if mouse X position is within the bounds of the X axis slice,
        // change the image to one that is indexed to that slice
        if (mouseX >= __imageMouseOver.slices[i][0] && mouseX <= __imageMouseOver.slices[i][1]) {
          // capture which slice is selected
          __imageMouseOver.sliceSelected = i;
          // update img src to the picture that corresponds to that slice
          $('#changeable-image').attr('src', `img/${__imageMouseOver.imgBase}${__imageMouseOver.nScale[i]}.jpg`);
        }
      };
    };
    
    // define the click listener that ends trial
    function clickHandler(event) {
      if (__listenerBools['mousemove']) {
        // derive trial data
        var trialData = __imageMouseOver.trialData;
        var end_time = (new Date()).getTime();
        var rt = end_time - __imageMouseOver.startTime;
        trialData['rt'] = rt;
        trialData['stimulus_duration'] = rt;
        trialData['trial_duration'] = rt;
        trialData['imageSelected'] = `${__imageMouseOver.imgBase}${__imageMouseOver.nScale[__imageMouseOver.sliceSelected]}.jpg`
        trialData['indexSelected'] = __imageMouseOver.sliceSelected;
        // turn off listeners
        $(document).off('mousemove');
        $(document).off('click');
        // clean up variable namespaces
        delete window.__imageMouseOver
        delete __listenerBools;
        // clean up scale
        $(""#scale-container"").remove();
        // finish the trial with trial data
        jsPsych.finishTrial(trialData);
      };
    };
  
    function verticalLineInit(event) {
      var mouseX = Math.floor(event.pageX);
      if (mouseX <= __imageMouseOver.lineSlice) {
        $(""#vertLine"").remove();
        $(""#linePrompt"").remove();
        $(""#jspsych-image-slider-response_noButton-stimulus > img"").css({
          ""filter"":""blur(0px)"",
          ""visibility"": ""visible"",
        });
        $('#jspsych-content > p').css(""visibility"", ""visible"");
        __listenerBools['mousemove'] = true;
        // turn off THIS mouse move listener
        $(document).off(""mousemove"");
        // turn on the mouse move listener that changes the image
        $(document).mousemove(changeImg);
        // add mouse click listener
        $(document).on('click', clickHandler);
      };
    };
  
    // turn on the vertical line mouse move listener
    $(document).mousemove(verticalLineInit);
  }","[object Object]","0","","Continue","2806","2806","true","red1.jpg","0","500","red","2","[44,40]","42","giraff","1",""
"html-keyboard-response","10","40578","0.0-10.0","zeevcheck1","null","","","","<p style=""font-size: 48px;""> + </p>","null","fixation","","","","","","","","","","","","","","","","","","","","","","","",""
"html-keyboard-response","11","42081","0.0-11.0","zeevcheck1","null","","","","<span class='grid'><div class='red' style='background-position:1300% 0%;margin-top:47px'></div> <div> </div> <div> </div> <div> </div> <div> </div> <div> </div> <div> </div> <div> </div> <div> </div> <div> </div> <div class='red' style='background-position:1900% 0%;margin-top:43px'></div> <div> </div> <div> </div> <div> </div></span>","null","stimulus","{""index"":0,""type"":""practice"",""color"":""red""}","","","","","","","","","","","","","","","","","","","","","","",""
"image-slider-response_noButton","12","43966","0.0-12.0","zeevcheck1","1884","","","","img/red1.jpg,img/red2.jpg,img/red3.jpg,img/red4.jpg,img/red5.jpg,img/red6.jpg,img/red7.jpg,img/red8.jpg,img/red9.jpg,img/red10.jpg,img/red11.jpg,img/red12.jpg,img/red13.jpg,img/red14.jpg,img/red15.jpg,img/red16.jpg,img/red17.jpg,img/red18.jpg,img/red19.jpg,img/red20.jpg,img/red21.jpg,img/red22.jpg,img/red23.jpg,img/red24.jpg,img/red25.jpg,img/red26.jpg,img/red27.jpg,img/red28.jpg,img/red29.jpg,img/red30.jpg,img/red31.jpg,img/red32.jpg,img/red33.jpg,img/red34.jpg,img/red35.jpg,img/red36.jpg,img/red37.jpg,img/red38.jpg,img/red39.jpg,img/red40.jpg,img/red41.jpg,img/red42.jpg,img/red43.jpg,img/red44.jpg,img/red45.jpg,img/red46.jpg,img/red47.jpg,img/red48.jpg,img/red49.jpg,img/red50.jpg","","response","{""index"":1,""type"":""practice"",""color"":""red""}","image-slider-response_noButton","<p>how red was the stimulus in your opinion?</p>","1","50","0","function morphedScaleRed() {
    // defining a few helper functions
    function nrange(size, startAt = 0) {
      return [...Array(size).keys()].map(i => i + startAt);
    };
  
    function fillArray(value, len) {
      var arr = [];
      for (var i = 0; i < len; i++) {
        arr.push(value);
      }
      return arr;
    };
  
    function generateSlices(vWidth, nSlices) {
      var step = vWidth*0.6/(nSlices-2);
      var stepArray = fillArray(step,nSlices-2)
      stepArray.unshift(0.2*vWidth)
      stepArray.push(0.2*vWidth)
  
      var bounds = [];
      
      for (var i = 0; i < nSlices; i++) {
        if (i==0) {
          bounds.push([(i*stepArray[i]), (i*stepArray[i])+stepArray[i]])
        } else if (i>0 && i!=nSlices-1) {
          bounds.push([(i*stepArray[i]+0.2*vWidth), (i*stepArray[i])+stepArray[i]+0.2*vWidth])
        } else {
          bounds.push([(vWidth-0.2*vWidth), vWidth])  
        }
      };
      return bounds;
    };
    
    // start trial timer
    var startTime = (new Date()).getTime();
    // get trial data
    var trialData = jsPsych.currentTrial();
  
    // remove the picture scales and the slider
    $('.jspsych-image-slider-response_noButton-container').css(""visibility"", ""hidden"");
    $('img').remove();
    var imgScale = getScaleRed();
    
    // derive the letter of the image filenames
    var imgBase = imgScale[0].split('img/')[1].split('.jpg')[0].replace(/\d+/g, '');
    
    // split the number of the image filenames off from the rest of it
    var nScale = [];
    for (var i = 0; i < imgScale.length-1; i++) {
      var n = imgScale[i].split('img/')[1].split('.jpg')[0].split(imgBase)[1];
      nScale.push(n);
    };
    
    // calculate the element width, and slice it up into sections
    var vWidth = $(document).width();
    var nSlices = nScale.length;
    var slices = generateSlices(vWidth, nSlices);
  
    // setting up initial vertical line to start the mousemove functionality
    var vHeight = $(document).height()-8;
    var lineSlice = vWidth / 10;
    var vertLine = `<div style=""border-left:black;border-style:solid;margin-left:${lineSlice}px; height:${vHeight}px;width:0px;position:absolute;"" id=""vertLine""></div>`;
    var linePrompt = `<div id=""linePrompt""><div style=""font-size:50px;position:absolute;margin-left:${lineSlice*1.3}px;margin-top:${vHeight/2}px""></div><div style=""position:absolute;margin-left:${lineSlice*1.2}px;margin-top:${vHeight/2}px;z-index:5;"">Move mouse left of the line to begin</div></div>`;
    $("".jspsych-content-wrapper"").prepend(vertLine);
    $("".jspsych-content-wrapper"").prepend(linePrompt);
    
    // hide prompt until the trial is begun
    $('#jspsych-content > p').css(""visibility"", ""hidden"");
  
    // initialize the central image with the most neutral one (i.e. from
    // the middle of the scale) and set the image to be blurred
    var initialImage = imgScale[0];
    $('#jspsych-image-slider-response_noButton-stimulus').append(`<img src=""${initialImage}"" style=""filter:blur(4px);visibility:hidden;"" id=""changeable-image""/>`);
  
    // ADD VISUAL SCALE SHOWING MIN/MAX
    var scaleWidth = vWidth * 0.6;
    var scaleLeft = vWidth * 0.2;
    var scaleHtml = `
      <div id=""scale-container"" style=""position:absolute; bottom:120px; left:${scaleLeft}px; width:${scaleWidth}px; height:30px; background-color:rgba(220,220,220,0.7); border-radius:5px; display:none; z-index:10;"">
        <div style=""position:absolute; left:0px; width:2px; height:30px; background-color:black;""></div>
        <div style=""position:absolute; left:0px; top:32px; font-size:12px; color:black;"">Min (1)</div>
        <div style=""position:absolute; right:0px; width:2px; height:30px; background-color:black;""></div>
        <div style=""position:absolute; right:0px; top:32px; font-size:12px; color:black;"">Max (50)</div>
        <div id=""current-marker"" style=""position:absolute; left:0px; width:2px; height:30px; background-color:red; display:none;""></div>
      </div>
    `;
    $("".jspsych-content-wrapper"").append(scaleHtml);
  
    // workaround with a global variable
    window.__imageMouseOver = {
      lineSlice: lineSlice,
      slices: slices,
      nScale: nScale,
      imgBase: imgBase,
      startTime: startTime,
      trialData: trialData,
      sliceSelected: 0,
    };
    var __listenerBools = {};
  
    // define mousemove event listener that changes image
    function changeImg(event) {
      var mouseX = Math.floor(event.pageX);
      
      // Show the scale after interaction begins
      $(""#scale-container"").css(""display"", ""block"");
      
      // Update current marker position based on mouse position
      var scaleWidth = $(""#scale-container"").width();
      var relativePos = Math.max(0, Math.min(mouseX - scaleLeft, scaleWidth));
      var percentPos = (relativePos / scaleWidth) * 100;
      
      $(""#current-marker"").css({
        ""left"": `${relativePos}px`,
        ""display"": ""block""
      });
      
      for (var i = 0; i < __imageMouseOver.slices.length; i++) {
        // if mouse X position is within the bounds of the X axis slice,
        // change the image to one that is indexed to that slice
        if (mouseX >= __imageMouseOver.slices[i][0] && mouseX <= __imageMouseOver.slices[i][1]) {
          // capture which slice is selected
          __imageMouseOver.sliceSelected = i;
          // update img src to the picture that corresponds to that slice
          $('#changeable-image').attr('src', `img/${__imageMouseOver.imgBase}${__imageMouseOver.nScale[i]}.jpg`);
        }
      };
    };
    
    // define the click listener that ends trial
    function clickHandler(event) {
      if (__listenerBools['mousemove']) {
        // derive trial data
        var trialData = __imageMouseOver.trialData;
        var end_time = (new Date()).getTime();
        var rt = end_time - __imageMouseOver.startTime;
        trialData['rt'] = rt;
        trialData['stimulus_duration'] = rt;
        trialData['trial_duration'] = rt;
        trialData['imageSelected'] = `${__imageMouseOver.imgBase}${__imageMouseOver.nScale[__imageMouseOver.sliceSelected]}.jpg`
        trialData['indexSelected'] = __imageMouseOver.sliceSelected;
        // turn off listeners
        $(document).off('mousemove');
        $(document).off('click');
        // clean up variable namespaces
        delete window.__imageMouseOver
        delete __listenerBools;
        // clean up scale
        $(""#scale-container"").remove();
        // finish the trial with trial data
        jsPsych.finishTrial(trialData);
      };
    };
  
    function verticalLineInit(event) {
      var mouseX = Math.floor(event.pageX);
      if (mouseX <= __imageMouseOver.lineSlice) {
        $(""#vertLine"").remove();
        $(""#linePrompt"").remove();
        $(""#jspsych-image-slider-response_noButton-stimulus > img"").css({
          ""filter"":""blur(0px)"",
          ""visibility"": ""visible"",
        });
        $('#jspsych-content > p').css(""visibility"", ""visible"");
        __listenerBools['mousemove'] = true;
        // turn off THIS mouse move listener
        $(document).off(""mousemove"");
        // turn on the mouse move listener that changes the image
        $(document).mousemove(changeImg);
        // add mouse click listener
        $(document).on('click', clickHandler);
      };
    };
  
    // turn on the vertical line mouse move listener
    $(document).mousemove(verticalLineInit);
  }","[object Object]","0","","Continue","1884","1884","true","red49.jpg","48","600","red","2","[19,13]","16","giraff","2",""
"html-keyboard-response","13","44367","0.0-13.0","zeevcheck1","null","","","","<p style=""font-size: 48px;""> + </p>","null","fixation","","","","","","","","","","","","","","","","","","","","","","","",""
"html-keyboard-response","14","45869","0.0-14.0","zeevcheck1","null","","","","<span class='grid'><div class='red' style='background-position:800% 0%;margin-top:21px'></div> <div class='red' style='background-position:1800% 0%;margin-top:22px'></div> <div> </div> <div class='red' style='background-position:1700% 0%;margin-top:46px'></div> <div> </div> <div> </div> <div class='red' style='background-position:1600% 0%;margin-top:23px'></div> <div class='red' style='background-position:1500% 0%;margin-top:43px'></div> <div class='red' style='background-position:1000% 0%;margin-top:43px'></div> <div class='red' style='background-position:600% 0%;margin-top:45px'></div> <div> </div> <div class='red' style='background-position:1900% 0%;margin-top:29px'></div> <div> </div> <div> </div> <div> </div> <div class='red' style='background-position:500% 0%;margin-top:32px'></div> <div class='red' style='background-position:700% 0%;margin-top:33px'></div> <div> </div> <div class='red' style='background-position:1300% 0%;margin-top:30px'></div></span>","null","stimulus","{""index"":1,""type"":""practice"",""color"":""red""}","","","","","","","","","","","","","","","","","","","","","","",""
"image-slider-response_noButton","15","49442","0.0-15.0","zeevcheck1","3572","","","","img/red1.jpg,img/red2.jpg,img/red3.jpg,img/red4.jpg,img/red5.jpg,img/red6.jpg,img/red7.jpg,img/red8.jpg,img/red9.jpg,img/red10.jpg,img/red11.jpg,img/red12.jpg,img/red13.jpg,img/red14.jpg,img/red15.jpg,img/red16.jpg,img/red17.jpg,img/red18.jpg,img/red19.jpg,img/red20.jpg,img/red21.jpg,img/red22.jpg,img/red23.jpg,img/red24.jpg,img/red25.jpg,img/red26.jpg,img/red27.jpg,img/red28.jpg,img/red29.jpg,img/red30.jpg,img/red31.jpg,img/red32.jpg,img/red33.jpg,img/red34.jpg,img/red35.jpg,img/red36.jpg,img/red37.jpg,img/red38.jpg,img/red39.jpg,img/red40.jpg,img/red41.jpg,img/red42.jpg,img/red43.jpg,img/red44.jpg,img/red45.jpg,img/red46.jpg,img/red47.jpg,img/red48.jpg,img/red49.jpg,img/red50.jpg","","response","{""index"":2,""type"":""practice"",""color"":""red""}","image-slider-response_noButton","<p>how red was the stimulus in your opinion?</p>","1","50","0","function morphedScaleRed() {
    // defining a few helper functions
    function nrange(size, startAt = 0) {
      return [...Array(size).keys()].map(i => i + startAt);
    };
  
    function fillArray(value, len) {
      var arr = [];
      for (var i = 0; i < len; i++) {
        arr.push(value);
      }
      return arr;
    };
  
    function generateSlices(vWidth, nSlices) {
      var step = vWidth*0.6/(nSlices-2);
      var stepArray = fillArray(step,nSlices-2)
      stepArray.unshift(0.2*vWidth)
      stepArray.push(0.2*vWidth)
  
      var bounds = [];
      
      for (var i = 0; i < nSlices; i++) {
        if (i==0) {
          bounds.push([(i*stepArray[i]), (i*stepArray[i])+stepArray[i]])
        } else if (i>0 && i!=nSlices-1) {
          bounds.push([(i*stepArray[i]+0.2*vWidth), (i*stepArray[i])+stepArray[i]+0.2*vWidth])
        } else {
          bounds.push([(vWidth-0.2*vWidth), vWidth])  
        }
      };
      return bounds;
    };
    
    // start trial timer
    var startTime = (new Date()).getTime();
    // get trial data
    var trialData = jsPsych.currentTrial();
  
    // remove the picture scales and the slider
    $('.jspsych-image-slider-response_noButton-container').css(""visibility"", ""hidden"");
    $('img').remove();
    var imgScale = getScaleRed();
    
    // derive the letter of the image filenames
    var imgBase = imgScale[0].split('img/')[1].split('.jpg')[0].replace(/\d+/g, '');
    
    // split the number of the image filenames off from the rest of it
    var nScale = [];
    for (var i = 0; i < imgScale.length-1; i++) {
      var n = imgScale[i].split('img/')[1].split('.jpg')[0].split(imgBase)[1];
      nScale.push(n);
    };
    
    // calculate the element width, and slice it up into sections
    var vWidth = $(document).width();
    var nSlices = nScale.length;
    var slices = generateSlices(vWidth, nSlices);
  
    // setting up initial vertical line to start the mousemove functionality
    var vHeight = $(document).height()-8;
    var lineSlice = vWidth / 10;
    var vertLine = `<div style=""border-left:black;border-style:solid;margin-left:${lineSlice}px; height:${vHeight}px;width:0px;position:absolute;"" id=""vertLine""></div>`;
    var linePrompt = `<div id=""linePrompt""><div style=""font-size:50px;position:absolute;margin-left:${lineSlice*1.3}px;margin-top:${vHeight/2}px""></div><div style=""position:absolute;margin-left:${lineSlice*1.2}px;margin-top:${vHeight/2}px;z-index:5;"">Move mouse left of the line to begin</div></div>`;
    $("".jspsych-content-wrapper"").prepend(vertLine);
    $("".jspsych-content-wrapper"").prepend(linePrompt);
    
    // hide prompt until the trial is begun
    $('#jspsych-content > p').css(""visibility"", ""hidden"");
  
    // initialize the central image with the most neutral one (i.e. from
    // the middle of the scale) and set the image to be blurred
    var initialImage = imgScale[0];
    $('#jspsych-image-slider-response_noButton-stimulus').append(`<img src=""${initialImage}"" style=""filter:blur(4px);visibility:hidden;"" id=""changeable-image""/>`);
  
    // ADD VISUAL SCALE SHOWING MIN/MAX
    var scaleWidth = vWidth * 0.6;
    var scaleLeft = vWidth * 0.2;
    var scaleHtml = `
      <div id=""scale-container"" style=""position:absolute; bottom:120px; left:${scaleLeft}px; width:${scaleWidth}px; height:30px; background-color:rgba(220,220,220,0.7); border-radius:5px; display:none; z-index:10;"">
        <div style=""position:absolute; left:0px; width:2px; height:30px; background-color:black;""></div>
        <div style=""position:absolute; left:0px; top:32px; font-size:12px; color:black;"">Min (1)</div>
        <div style=""position:absolute; right:0px; width:2px; height:30px; background-color:black;""></div>
        <div style=""position:absolute; right:0px; top:32px; font-size:12px; color:black;"">Max (50)</div>
        <div id=""current-marker"" style=""position:absolute; left:0px; width:2px; height:30px; background-color:red; display:none;""></div>
      </div>
    `;
    $("".jspsych-content-wrapper"").append(scaleHtml);
  
    // workaround with a global variable
    window.__imageMouseOver = {
      lineSlice: lineSlice,
      slices: slices,
      nScale: nScale,
      imgBase: imgBase,
      startTime: startTime,
      trialData: trialData,
      sliceSelected: 0,
    };
    var __listenerBools = {};
  
    // define mousemove event listener that changes image
    function changeImg(event) {
      var mouseX = Math.floor(event.pageX);
      
      // Show the scale after interaction begins
      $(""#scale-container"").css(""display"", ""block"");
      
      // Update current marker position based on mouse position
      var scaleWidth = $(""#scale-container"").width();
      var relativePos = Math.max(0, Math.min(mouseX - scaleLeft, scaleWidth));
      var percentPos = (relativePos / scaleWidth) * 100;
      
      $(""#current-marker"").css({
        ""left"": `${relativePos}px`,
        ""display"": ""block""
      });
      
      for (var i = 0; i < __imageMouseOver.slices.length; i++) {
        // if mouse X position is within the bounds of the X axis slice,
        // change the image to one that is indexed to that slice
        if (mouseX >= __imageMouseOver.slices[i][0] && mouseX <= __imageMouseOver.slices[i][1]) {
          // capture which slice is selected
          __imageMouseOver.sliceSelected = i;
          // update img src to the picture that corresponds to that slice
          $('#changeable-image').attr('src', `img/${__imageMouseOver.imgBase}${__imageMouseOver.nScale[i]}.jpg`);
        }
      };
    };
    
    // define the click listener that ends trial
    function clickHandler(event) {
      if (__listenerBools['mousemove']) {
        // derive trial data
        var trialData = __imageMouseOver.trialData;
        var end_time = (new Date()).getTime();
        var rt = end_time - __imageMouseOver.startTime;
        trialData['rt'] = rt;
        trialData['stimulus_duration'] = rt;
        trialData['trial_duration'] = rt;
        trialData['imageSelected'] = `${__imageMouseOver.imgBase}${__imageMouseOver.nScale[__imageMouseOver.sliceSelected]}.jpg`
        trialData['indexSelected'] = __imageMouseOver.sliceSelected;
        // turn off listeners
        $(document).off('mousemove');
        $(document).off('click');
        // clean up variable namespaces
        delete window.__imageMouseOver
        delete __listenerBools;
        // clean up scale
        $(""#scale-container"").remove();
        // finish the trial with trial data
        jsPsych.finishTrial(trialData);
      };
    };
  
    function verticalLineInit(event) {
      var mouseX = Math.floor(event.pageX);
      if (mouseX <= __imageMouseOver.lineSlice) {
        $(""#vertLine"").remove();
        $(""#linePrompt"").remove();
        $(""#jspsych-image-slider-response_noButton-stimulus > img"").css({
          ""filter"":""blur(0px)"",
          ""visibility"": ""visible"",
        });
        $('#jspsych-content > p').css(""visibility"", ""visible"");
        __listenerBools['mousemove'] = true;
        // turn off THIS mouse move listener
        $(document).off(""mousemove"");
        // turn on the mouse move listener that changes the image
        $(document).mousemove(changeImg);
        // add mouse click listener
        $(document).on('click', clickHandler);
      };
    };
  
    // turn on the vertical line mouse move listener
    $(document).mousemove(verticalLineInit);
  }","[object Object]","0","","Continue","3572","3572","true","red1.jpg","0","400","red","11","[13,8,10,7,15,16,18,5,6,17,19]","12.181818181818182","giraff","3",""
"html-keyboard-response","16","50045","0.0-16.0","zeevcheck1","null","","","","<p style=""font-size: 48px;""> + </p>","null","fixation","","","","","","","","","","","","","","","","","","","","","","","",""
"html-keyboard-response","17","51546","0.0-17.0","zeevcheck1","null","","","","<span class='grid'><div class='red' style='background-position:1900% 0%;margin-top:41px'></div> <div class='red' style='background-position:1100% 0%;margin-top:42px'></div> <div class='red' style='background-position:1600% 0%;margin-top:36px'></div> <div> </div> <div class='red' style='background-position:1200% 0%;margin-top:50px'></div> <div class='red' style='background-position:1700% 0%;margin-top:25px'></div> <div class='red' style='background-position:1300% 0%;margin-top:39px'></div> <div class='red' style='background-position:800% 0%;margin-top:38px'></div> <div> </div> <div> </div> <div> </div> <div> </div> <div class='red' style='background-position:1500% 0%;margin-top:22px'></div> <div> </div> <div> </div> <div class='red' style='background-position:1800% 0%;margin-top:27px'></div> <div> </div> <div> </div></span>","null","stimulus","{""index"":2,""type"":""practice"",""color"":""red""}","","","","","","","","","","","","","","","","","","","","","","",""
"image-slider-response_noButton","18","52925","0.0-18.0","zeevcheck1","1378","","","","img/red1.jpg,img/red2.jpg,img/red3.jpg,img/red4.jpg,img/red5.jpg,img/red6.jpg,img/red7.jpg,img/red8.jpg,img/red9.jpg,img/red10.jpg,img/red11.jpg,img/red12.jpg,img/red13.jpg,img/red14.jpg,img/red15.jpg,img/red16.jpg,img/red17.jpg,img/red18.jpg,img/red19.jpg,img/red20.jpg,img/red21.jpg,img/red22.jpg,img/red23.jpg,img/red24.jpg,img/red25.jpg,img/red26.jpg,img/red27.jpg,img/red28.jpg,img/red29.jpg,img/red30.jpg,img/red31.jpg,img/red32.jpg,img/red33.jpg,img/red34.jpg,img/red35.jpg,img/red36.jpg,img/red37.jpg,img/red38.jpg,img/red39.jpg,img/red40.jpg,img/red41.jpg,img/red42.jpg,img/red43.jpg,img/red44.jpg,img/red45.jpg,img/red46.jpg,img/red47.jpg,img/red48.jpg,img/red49.jpg,img/red50.jpg","","response","{""index"":3,""type"":""practice"",""color"":""red""}","image-slider-response_noButton","<p>how red was the stimulus in your opinion?</p>","1","50","0","function morphedScaleRed() {
    // defining a few helper functions
    function nrange(size, startAt = 0) {
      return [...Array(size).keys()].map(i => i + startAt);
    };
  
    function fillArray(value, len) {
      var arr = [];
      for (var i = 0; i < len; i++) {
        arr.push(value);
      }
      return arr;
    };
  
    function generateSlices(vWidth, nSlices) {
      var step = vWidth*0.6/(nSlices-2);
      var stepArray = fillArray(step,nSlices-2)
      stepArray.unshift(0.2*vWidth)
      stepArray.push(0.2*vWidth)
  
      var bounds = [];
      
      for (var i = 0; i < nSlices; i++) {
        if (i==0) {
          bounds.push([(i*stepArray[i]), (i*stepArray[i])+stepArray[i]])
        } else if (i>0 && i!=nSlices-1) {
          bounds.push([(i*stepArray[i]+0.2*vWidth), (i*stepArray[i])+stepArray[i]+0.2*vWidth])
        } else {
          bounds.push([(vWidth-0.2*vWidth), vWidth])  
        }
      };
      return bounds;
    };
    
    // start trial timer
    var startTime = (new Date()).getTime();
    // get trial data
    var trialData = jsPsych.currentTrial();
  
    // remove the picture scales and the slider
    $('.jspsych-image-slider-response_noButton-container').css(""visibility"", ""hidden"");
    $('img').remove();
    var imgScale = getScaleRed();
    
    // derive the letter of the image filenames
    var imgBase = imgScale[0].split('img/')[1].split('.jpg')[0].replace(/\d+/g, '');
    
    // split the number of the image filenames off from the rest of it
    var nScale = [];
    for (var i = 0; i < imgScale.length-1; i++) {
      var n = imgScale[i].split('img/')[1].split('.jpg')[0].split(imgBase)[1];
      nScale.push(n);
    };
    
    // calculate the element width, and slice it up into sections
    var vWidth = $(document).width();
    var nSlices = nScale.length;
    var slices = generateSlices(vWidth, nSlices);
  
    // setting up initial vertical line to start the mousemove functionality
    var vHeight = $(document).height()-8;
    var lineSlice = vWidth / 10;
    var vertLine = `<div style=""border-left:black;border-style:solid;margin-left:${lineSlice}px; height:${vHeight}px;width:0px;position:absolute;"" id=""vertLine""></div>`;
    var linePrompt = `<div id=""linePrompt""><div style=""font-size:50px;position:absolute;margin-left:${lineSlice*1.3}px;margin-top:${vHeight/2}px""></div><div style=""position:absolute;margin-left:${lineSlice*1.2}px;margin-top:${vHeight/2}px;z-index:5;"">Move mouse left of the line to begin</div></div>`;
    $("".jspsych-content-wrapper"").prepend(vertLine);
    $("".jspsych-content-wrapper"").prepend(linePrompt);
    
    // hide prompt until the trial is begun
    $('#jspsych-content > p').css(""visibility"", ""hidden"");
  
    // initialize the central image with the most neutral one (i.e. from
    // the middle of the scale) and set the image to be blurred
    var initialImage = imgScale[0];
    $('#jspsych-image-slider-response_noButton-stimulus').append(`<img src=""${initialImage}"" style=""filter:blur(4px);visibility:hidden;"" id=""changeable-image""/>`);
  
    // ADD VISUAL SCALE SHOWING MIN/MAX
    var scaleWidth = vWidth * 0.6;
    var scaleLeft = vWidth * 0.2;
    var scaleHtml = `
      <div id=""scale-container"" style=""position:absolute; bottom:120px; left:${scaleLeft}px; width:${scaleWidth}px; height:30px; background-color:rgba(220,220,220,0.7); border-radius:5px; display:none; z-index:10;"">
        <div style=""position:absolute; left:0px; width:2px; height:30px; background-color:black;""></div>
        <div style=""position:absolute; left:0px; top:32px; font-size:12px; color:black;"">Min (1)</div>
        <div style=""position:absolute; right:0px; width:2px; height:30px; background-color:black;""></div>
        <div style=""position:absolute; right:0px; top:32px; font-size:12px; color:black;"">Max (50)</div>
        <div id=""current-marker"" style=""position:absolute; left:0px; width:2px; height:30px; background-color:red; display:none;""></div>
      </div>
    `;
    $("".jspsych-content-wrapper"").append(scaleHtml);
  
    // workaround with a global variable
    window.__imageMouseOver = {
      lineSlice: lineSlice,
      slices: slices,
      nScale: nScale,
      imgBase: imgBase,
      startTime: startTime,
      trialData: trialData,
      sliceSelected: 0,
    };
    var __listenerBools = {};
  
    // define mousemove event listener that changes image
    function changeImg(event) {
      var mouseX = Math.floor(event.pageX);
      
      // Show the scale after interaction begins
      $(""#scale-container"").css(""display"", ""block"");
      
      // Update current marker position based on mouse position
      var scaleWidth = $(""#scale-container"").width();
      var relativePos = Math.max(0, Math.min(mouseX - scaleLeft, scaleWidth));
      var percentPos = (relativePos / scaleWidth) * 100;
      
      $(""#current-marker"").css({
        ""left"": `${relativePos}px`,
        ""display"": ""block""
      });
      
      for (var i = 0; i < __imageMouseOver.slices.length; i++) {
        // if mouse X position is within the bounds of the X axis slice,
        // change the image to one that is indexed to that slice
        if (mouseX >= __imageMouseOver.slices[i][0] && mouseX <= __imageMouseOver.slices[i][1]) {
          // capture which slice is selected
          __imageMouseOver.sliceSelected = i;
          // update img src to the picture that corresponds to that slice
          $('#changeable-image').attr('src', `img/${__imageMouseOver.imgBase}${__imageMouseOver.nScale[i]}.jpg`);
        }
      };
    };
    
    // define the click listener that ends trial
    function clickHandler(event) {
      if (__listenerBools['mousemove']) {
        // derive trial data
        var trialData = __imageMouseOver.trialData;
        var end_time = (new Date()).getTime();
        var rt = end_time - __imageMouseOver.startTime;
        trialData['rt'] = rt;
        trialData['stimulus_duration'] = rt;
        trialData['trial_duration'] = rt;
        trialData['imageSelected'] = `${__imageMouseOver.imgBase}${__imageMouseOver.nScale[__imageMouseOver.sliceSelected]}.jpg`
        trialData['indexSelected'] = __imageMouseOver.sliceSelected;
        // turn off listeners
        $(document).off('mousemove');
        $(document).off('click');
        // clean up variable namespaces
        delete window.__imageMouseOver
        delete __listenerBools;
        // clean up scale
        $(""#scale-container"").remove();
        // finish the trial with trial data
        jsPsych.finishTrial(trialData);
      };
    };
  
    function verticalLineInit(event) {
      var mouseX = Math.floor(event.pageX);
      if (mouseX <= __imageMouseOver.lineSlice) {
        $(""#vertLine"").remove();
        $(""#linePrompt"").remove();
        $(""#jspsych-image-slider-response_noButton-stimulus > img"").css({
          ""filter"":""blur(0px)"",
          ""visibility"": ""visible"",
        });
        $('#jspsych-content > p').css(""visibility"", ""visible"");
        __listenerBools['mousemove'] = true;
        // turn off THIS mouse move listener
        $(document).off(""mousemove"");
        // turn on the mouse move listener that changes the image
        $(document).mousemove(changeImg);
        // add mouse click listener
        $(document).on('click', clickHandler);
      };
    };
  
    // turn on the vertical line mouse move listener
    $(document).mousemove(verticalLineInit);
  }","[object Object]","0","","Continue","1378","1378","true","red49.jpg","48","600","red","9","[11,15,16,8,12,17,18,13,19]","14.333333333333334","giraff","4",""
"html-keyboard-response","19","53527","0.0-19.0","zeevcheck1","null","","","","<p style=""font-size: 48px;""> + </p>","null","fixation","","","","","","","","","","","","","","","","","","","","","","","",""
"html-keyboard-response","20","55030","0.0-20.0","zeevcheck1","null","","","","<span class='grid'><div> </div> <div> </div> <div class='red' style='background-position:4000% 0%;margin-top:49px'></div> <div class='red' style='background-position:3400% 0%;margin-top:37px'></div> <div class='red' style='background-position:3800% 0%;margin-top:43px'></div> <div> </div> <div class='red' style='background-position:3500% 0%;margin-top:36px'></div> <div class='red' style='background-position:4700% 0%;margin-top:21px'></div> <div> </div> <div class='red' style='background-position:4600% 0%;margin-top:31px'></div> <div> </div> <div class='red' style='background-position:4800% 0%;margin-top:30px'></div> <div class='red' style='background-position:4500% 0%;margin-top:48px'></div> <div> </div> <div> </div> <div class='red' style='background-position:4300% 0%;margin-top:40px'></div> <div> </div> <div class='red' style='background-position:4400% 0%;margin-top:39px'></div></span>","null","stimulus","{""index"":3,""type"":""practice"",""color"":""red""}","","","","","","","","","","","","","","","","","","","","","","",""
"image-slider-response_noButton","21","56784","0.0-21.0","zeevcheck1","1750","","","","img/red1.jpg,img/red2.jpg,img/red3.jpg,img/red4.jpg,img/red5.jpg,img/red6.jpg,img/red7.jpg,img/red8.jpg,img/red9.jpg,img/red10.jpg,img/red11.jpg,img/red12.jpg,img/red13.jpg,img/red14.jpg,img/red15.jpg,img/red16.jpg,img/red17.jpg,img/red18.jpg,img/red19.jpg,img/red20.jpg,img/red21.jpg,img/red22.jpg,img/red23.jpg,img/red24.jpg,img/red25.jpg,img/red26.jpg,img/red27.jpg,img/red28.jpg,img/red29.jpg,img/red30.jpg,img/red31.jpg,img/red32.jpg,img/red33.jpg,img/red34.jpg,img/red35.jpg,img/red36.jpg,img/red37.jpg,img/red38.jpg,img/red39.jpg,img/red40.jpg,img/red41.jpg,img/red42.jpg,img/red43.jpg,img/red44.jpg,img/red45.jpg,img/red46.jpg,img/red47.jpg,img/red48.jpg,img/red49.jpg,img/red50.jpg","","response","{""index"":4,""type"":""practice"",""color"":""red""}","image-slider-response_noButton","<p>how red was the stimulus in your opinion?</p>","1","50","0","function morphedScaleRed() {
    // defining a few helper functions
    function nrange(size, startAt = 0) {
      return [...Array(size).keys()].map(i => i + startAt);
    };
  
    function fillArray(value, len) {
      var arr = [];
      for (var i = 0; i < len; i++) {
        arr.push(value);
      }
      return arr;
    };
  
    function generateSlices(vWidth, nSlices) {
      var step = vWidth*0.6/(nSlices-2);
      var stepArray = fillArray(step,nSlices-2)
      stepArray.unshift(0.2*vWidth)
      stepArray.push(0.2*vWidth)
  
      var bounds = [];
      
      for (var i = 0; i < nSlices; i++) {
        if (i==0) {
          bounds.push([(i*stepArray[i]), (i*stepArray[i])+stepArray[i]])
        } else if (i>0 && i!=nSlices-1) {
          bounds.push([(i*stepArray[i]+0.2*vWidth), (i*stepArray[i])+stepArray[i]+0.2*vWidth])
        } else {
          bounds.push([(vWidth-0.2*vWidth), vWidth])  
        }
      };
      return bounds;
    };
    
    // start trial timer
    var startTime = (new Date()).getTime();
    // get trial data
    var trialData = jsPsych.currentTrial();
  
    // remove the picture scales and the slider
    $('.jspsych-image-slider-response_noButton-container').css(""visibility"", ""hidden"");
    $('img').remove();
    var imgScale = getScaleRed();
    
    // derive the letter of the image filenames
    var imgBase = imgScale[0].split('img/')[1].split('.jpg')[0].replace(/\d+/g, '');
    
    // split the number of the image filenames off from the rest of it
    var nScale = [];
    for (var i = 0; i < imgScale.length-1; i++) {
      var n = imgScale[i].split('img/')[1].split('.jpg')[0].split(imgBase)[1];
      nScale.push(n);
    };
    
    // calculate the element width, and slice it up into sections
    var vWidth = $(document).width();
    var nSlices = nScale.length;
    var slices = generateSlices(vWidth, nSlices);
  
    // setting up initial vertical line to start the mousemove functionality
    var vHeight = $(document).height()-8;
    var lineSlice = vWidth / 10;
    var vertLine = `<div style=""border-left:black;border-style:solid;margin-left:${lineSlice}px; height:${vHeight}px;width:0px;position:absolute;"" id=""vertLine""></div>`;
    var linePrompt = `<div id=""linePrompt""><div style=""font-size:50px;position:absolute;margin-left:${lineSlice*1.3}px;margin-top:${vHeight/2}px""></div><div style=""position:absolute;margin-left:${lineSlice*1.2}px;margin-top:${vHeight/2}px;z-index:5;"">Move mouse left of the line to begin</div></div>`;
    $("".jspsych-content-wrapper"").prepend(vertLine);
    $("".jspsych-content-wrapper"").prepend(linePrompt);
    
    // hide prompt until the trial is begun
    $('#jspsych-content > p').css(""visibility"", ""hidden"");
  
    // initialize the central image with the most neutral one (i.e. from
    // the middle of the scale) and set the image to be blurred
    var initialImage = imgScale[0];
    $('#jspsych-image-slider-response_noButton-stimulus').append(`<img src=""${initialImage}"" style=""filter:blur(4px);visibility:hidden;"" id=""changeable-image""/>`);
  
    // ADD VISUAL SCALE SHOWING MIN/MAX
    var scaleWidth = vWidth * 0.6;
    var scaleLeft = vWidth * 0.2;
    var scaleHtml = `
      <div id=""scale-container"" style=""position:absolute; bottom:120px; left:${scaleLeft}px; width:${scaleWidth}px; height:30px; background-color:rgba(220,220,220,0.7); border-radius:5px; display:none; z-index:10;"">
        <div style=""position:absolute; left:0px; width:2px; height:30px; background-color:black;""></div>
        <div style=""position:absolute; left:0px; top:32px; font-size:12px; color:black;"">Min (1)</div>
        <div style=""position:absolute; right:0px; width:2px; height:30px; background-color:black;""></div>
        <div style=""position:absolute; right:0px; top:32px; font-size:12px; color:black;"">Max (50)</div>
        <div id=""current-marker"" style=""position:absolute; left:0px; width:2px; height:30px; background-color:red; display:none;""></div>
      </div>
    `;
    $("".jspsych-content-wrapper"").append(scaleHtml);
  
    // workaround with a global variable
    window.__imageMouseOver = {
      lineSlice: lineSlice,
      slices: slices,
      nScale: nScale,
      imgBase: imgBase,
      startTime: startTime,
      trialData: trialData,
      sliceSelected: 0,
    };
    var __listenerBools = {};
  
    // define mousemove event listener that changes image
    function changeImg(event) {
      var mouseX = Math.floor(event.pageX);
      
      // Show the scale after interaction begins
      $(""#scale-container"").css(""display"", ""block"");
      
      // Update current marker position based on mouse position
      var scaleWidth = $(""#scale-container"").width();
      var relativePos = Math.max(0, Math.min(mouseX - scaleLeft, scaleWidth));
      var percentPos = (relativePos / scaleWidth) * 100;
      
      $(""#current-marker"").css({
        ""left"": `${relativePos}px`,
        ""display"": ""block""
      });
      
      for (var i = 0; i < __imageMouseOver.slices.length; i++) {
        // if mouse X position is within the bounds of the X axis slice,
        // change the image to one that is indexed to that slice
        if (mouseX >= __imageMouseOver.slices[i][0] && mouseX <= __imageMouseOver.slices[i][1]) {
          // capture which slice is selected
          __imageMouseOver.sliceSelected = i;
          // update img src to the picture that corresponds to that slice
          $('#changeable-image').attr('src', `img/${__imageMouseOver.imgBase}${__imageMouseOver.nScale[i]}.jpg`);
        }
      };
    };
    
    // define the click listener that ends trial
    function clickHandler(event) {
      if (__listenerBools['mousemove']) {
        // derive trial data
        var trialData = __imageMouseOver.trialData;
        var end_time = (new Date()).getTime();
        var rt = end_time - __imageMouseOver.startTime;
        trialData['rt'] = rt;
        trialData['stimulus_duration'] = rt;
        trialData['trial_duration'] = rt;
        trialData['imageSelected'] = `${__imageMouseOver.imgBase}${__imageMouseOver.nScale[__imageMouseOver.sliceSelected]}.jpg`
        trialData['indexSelected'] = __imageMouseOver.sliceSelected;
        // turn off listeners
        $(document).off('mousemove');
        $(document).off('click');
        // clean up variable namespaces
        delete window.__imageMouseOver
        delete __listenerBools;
        // clean up scale
        $(""#scale-container"").remove();
        // finish the trial with trial data
        jsPsych.finishTrial(trialData);
      };
    };
  
    function verticalLineInit(event) {
      var mouseX = Math.floor(event.pageX);
      if (mouseX <= __imageMouseOver.lineSlice) {
        $(""#vertLine"").remove();
        $(""#linePrompt"").remove();
        $(""#jspsych-image-slider-response_noButton-stimulus > img"").css({
          ""filter"":""blur(0px)"",
          ""visibility"": ""visible"",
        });
        $('#jspsych-content > p').css(""visibility"", ""visible"");
        __listenerBools['mousemove'] = true;
        // turn off THIS mouse move listener
        $(document).off(""mousemove"");
        // turn on the mouse move listener that changes the image
        $(document).mousemove(changeImg);
        // add mouse click listener
        $(document).on('click', clickHandler);
      };
    };
  
    // turn on the vertical line mouse move listener
    $(document).mousemove(verticalLineInit);
  }","[object Object]","0","","Continue","1750","1750","true","red1.jpg","0","600","red","10","[38,46,45,34,35,44,47,48,40,43]","42","giraff","5",""
"instructions","22","58050","0.0-22.0","zeevcheck1","1265.0000000000073","","[{""page_index"":0,""viewing_time"":1265.0000000000073}]","","","","","","","","","","","","","","","","","","","","","","","","","","","",""
"survey-text","23","60947","0.0-23.0-0.0","zeevcheck1","2892","","","{""Q0"":""rock""}","","","","","","","","","","","","","","","","","","","","","","","","","","",""
"html-keyboard-response","24","61348","0.0-24.0","zeevcheck1","null","","","","<p style=""font-size: 48px;""> + </p>","null","fixation","","","","","","","","","","","","","","","","","","","","","","","","blue"
"html-keyboard-response","25","62850","0.0-25.0","zeevcheck1","null","","","","<span class='grid'><div> </div> <div class='blue' style='background-position:3500% 0%;margin-top:43px'></div> <div class='blue' style='background-position:3000% 0%;margin-top:41px'></div> <div class='blue' style='background-position:2800% 0%;margin-top:26px'></div> <div> </div> <div> </div> <div> </div> <div> </div> <div> </div> <div> </div> <div> </div> <div> </div> <div class='blue' style='background-position:4000% 0%;margin-top:20px'></div> <div class='blue' style='background-position:3100% 0%;margin-top:27px'></div> <div class='blue' style='background-position:3800% 0%;margin-top:22px'></div> <div class='blue' style='background-position:3300% 0%;margin-top:27px'></div> <div class='blue' style='background-position:3700% 0%;margin-top:27px'></div></span>","null","stimulus","{""index"":4,""type"":""practice"",""color"":""red""}","","","","","","","","","","","","","","","","","","","","","","","blue"
"image-slider-response_noButton","26","65936","0.0-26.0","zeevcheck1","3081","","","","img/blue1.jpg,img/blue2.jpg,img/blue3.jpg,img/blue4.jpg,img/blue5.jpg,img/blue6.jpg,img/blue7.jpg,img/blue8.jpg,img/blue9.jpg,img/blue10.jpg,img/blue11.jpg,img/blue12.jpg,img/blue13.jpg,img/blue14.jpg,img/blue15.jpg,img/blue16.jpg,img/blue17.jpg,img/blue18.jpg,img/blue19.jpg,img/blue20.jpg,img/blue21.jpg,img/blue22.jpg,img/blue23.jpg,img/blue24.jpg,img/blue25.jpg,img/blue26.jpg,img/blue27.jpg,img/blue28.jpg,img/blue29.jpg,img/blue30.jpg,img/blue31.jpg,img/blue32.jpg,img/blue33.jpg,img/blue34.jpg,img/blue35.jpg,img/blue36.jpg,img/blue37.jpg,img/blue38.jpg,img/blue39.jpg,img/blue40.jpg,img/blue41.jpg,img/blue42.jpg,img/blue43.jpg,img/blue44.jpg,img/blue45.jpg,img/blue46.jpg,img/blue47.jpg,img/blue48.jpg,img/blue49.jpg,img/blue50.jpg","","response","{""index"":0,""type"":""experimental"",""array_length"":8,""meanVal"":34,""color"":""blue""}","image-slider-response_noButton","<p>how blue was the stimulus in your opinion?</p>","1","50","0","function morphedScaleBlue() {
  // defining a few helper functions
  function nrange(size, startAt = 0) {
    return [...Array(size).keys()].map(i => i + startAt);
  };

  function fillArray(value, len) {
    var arr = [];
    for (var i = 0; i < len; i++) {
      arr.push(value);
    }
    return arr;
  };

  function generateSlices(vWidth, nSlices) {
    var step = vWidth*0.6/(nSlices-2);
    var stepArray = fillArray(step,nSlices-2)
    stepArray.unshift(0.2*vWidth)
    stepArray.push(0.2*vWidth)

    var bounds = [];
    
    for (var i = 0; i < nSlices; i++) {
      if (i==0) {
        bounds.push([(i*stepArray[i]), (i*stepArray[i])+stepArray[i]])
      } else if (i>0 && i!=nSlices-1) {
        bounds.push([(i*stepArray[i]+0.2*vWidth), (i*stepArray[i])+stepArray[i]+0.2*vWidth])
      } else {
        bounds.push([(vWidth-0.2*vWidth), vWidth])  
      }
    };
    return bounds;
  };
  
  // start trial timer
  var startTime = (new Date()).getTime();
  // get trial data
  var trialData = jsPsych.currentTrial();

  // remove the picture scales and the slider
  $('.jspsych-image-slider-response_noButton-container').css(""visibility"", ""hidden"");
  $('img').remove();
  var imgScale = getScaleBlue();
  
  // derive the letter of the image filenames
  var imgBase = imgScale[0].split('img/')[1].split('.jpg')[0].replace(/\d+/g, '');
  
  // split the number of the image filenames off from the rest of it
  var nScale = [];
  for (var i = 0; i < imgScale.length-1; i++) {
    var n = imgScale[i].split('img/')[1].split('.jpg')[0].split(imgBase)[1];
    nScale.push(n);
  };
  
  // calculate the element width, and slice it up into sections
  var vWidth = $(document).width();
  var nSlices = nScale.length;
  var slices = generateSlices(vWidth, nSlices);

  // setting up initial vertical line to start the mousemove functionality
  var vHeight = $(document).height()-8;
  var lineSlice = vWidth / 10;
  var vertLine = `<div style=""border-left:black;border-style:solid;margin-left:${lineSlice}px; height:${vHeight}px;width:0px;position:absolute;"" id=""vertLine""></div>`;
  var linePrompt = `<div id=""linePrompt""><div style=""font-size:50px;position:absolute;margin-left:${lineSlice*1.3}px;margin-top:${vHeight/2}px""></div><div style=""position:absolute;margin-left:${lineSlice*1.2}px;margin-top:${vHeight/2}px;z-index:5;"">Move mouse left of the line to begin</div></div>`;
  $("".jspsych-content-wrapper"").prepend(vertLine);
  $("".jspsych-content-wrapper"").prepend(linePrompt);
  
  // hide prompt until the trial is begun
  $('#jspsych-content > p').css(""visibility"", ""hidden"");

  // initialize the central image with the most neutral one (i.e. from
  // the middle of the scale) and set the image to be blurred
  var initialImage = imgScale[0];
  $('#jspsych-image-slider-response_noButton-stimulus').append(`<img src=""${initialImage}"" style=""filter:blur(4px);visibility:hidden;"" id=""changeable-image""/>`);

  // ADD VISUAL SCALE SHOWING MIN/MAX
  var scaleWidth = vWidth * 0.6;
  var scaleLeft = vWidth * 0.2;
  var scaleHtml = `
    <div id=""scale-container"" style=""position:absolute; bottom:120px; left:${scaleLeft}px; width:${scaleWidth}px; height:30px; background-color:rgba(220,220,220,0.7); border-radius:5px; display:none; z-index:10;"">
      <div style=""position:absolute; left:0px; width:2px; height:30px; background-color:black;""></div>
      <div style=""position:absolute; left:0px; top:32px; font-size:12px; color:black;"">Min (1)</div>
      <div style=""position:absolute; right:0px; width:2px; height:30px; background-color:black;""></div>
      <div style=""position:absolute; right:0px; top:32px; font-size:12px; color:black;"">Max (50)</div>
      <div id=""current-marker"" style=""position:absolute; left:0px; width:2px; height:30px; background-color:blue; display:none;""></div>
    </div>
  `;
  $("".jspsych-content-wrapper"").append(scaleHtml);

  // workaround with a global variable
  window.__imageMouseOver = {
    lineSlice: lineSlice,
    slices: slices,
    nScale: nScale,
    imgBase: imgBase,
    startTime: startTime,
    trialData: trialData,
    sliceSelected: 0,
  };
  var __listenerBools = {};

  // define mousemove event listener that changes image
  function changeImg(event) {
    var mouseX = Math.floor(event.pageX);
    
    // Show the scale after interaction begins
    $(""#scale-container"").css(""display"", ""block"");
    
    // Update current marker position based on mouse position
    var scaleWidth = $(""#scale-container"").width();
    var relativePos = Math.max(0, Math.min(mouseX - scaleLeft, scaleWidth));
    var percentPos = (relativePos / scaleWidth) * 100;
    
    $(""#current-marker"").css({
      ""left"": `${relativePos}px`,
      ""display"": ""block""
    });
    
    for (var i = 0; i < __imageMouseOver.slices.length; i++) {
      // if mouse X position is within the bounds of the X axis slice,
      // change the image to one that is indexed to that slice
      if (mouseX >= __imageMouseOver.slices[i][0] && mouseX <= __imageMouseOver.slices[i][1]) {
        // capture which slice is selected
        __imageMouseOver.sliceSelected = i;
        // update img src to the picture that corresponds to that slice
        $('#changeable-image').attr('src', `img/${__imageMouseOver.imgBase}${__imageMouseOver.nScale[i]}.jpg`);
      }
    };
  };
  
  // define the click listener that ends trial
  function clickHandler(event) {
    if (__listenerBools['mousemove']) {
      // derive trial data
      var trialData = __imageMouseOver.trialData;
      var end_time = (new Date()).getTime();
      var rt = end_time - __imageMouseOver.startTime;
      trialData['rt'] = rt;
      trialData['stimulus_duration'] = rt;
      trialData['trial_duration'] = rt;
      trialData['imageSelected'] = `${__imageMouseOver.imgBase}${__imageMouseOver.nScale[__imageMouseOver.sliceSelected]}.jpg`
      trialData['indexSelected'] = __imageMouseOver.sliceSelected;
      // turn off listeners
      $(document).off('mousemove');
      $(document).off('click');
      // clean up variable namespaces
      delete window.__imageMouseOver
      delete __listenerBools;
      // clean up scale
      $(""#scale-container"").remove();
      // finish the trial with trial data
      jsPsych.finishTrial(trialData);
    };
  };

  function verticalLineInit(event) {
    var mouseX = Math.floor(event.pageX);
    if (mouseX <= __imageMouseOver.lineSlice) {
      $(""#vertLine"").remove();
      $(""#linePrompt"").remove();
      $(""#jspsych-image-slider-response_noButton-stimulus > img"").css({
        ""filter"":""blur(0px)"",
        ""visibility"": ""visible"",
      });
      $('#jspsych-content > p').css(""visibility"", ""visible"");
      $('.jspsych-image-slider-response_noButton-').css(""visibility"", ""visible"");
      
      __listenerBools['mousemove'] = true;
      // turn off THIS mouse move listener
      $(document).off(""mousemove"");
      // turn on the mouse move listener that changes the image
      $(document).mousemove(changeImg);
      // add mouse click listener
      $(document).on('click', clickHandler);
    };
  };

  // turn on the vertical line mouse move listener
  $(document).mousemove(verticalLineInit);
}","[object Object]","0","","Continue","3081","3081","true","blue1.jpg","0","400","blue","8","[28,30,31,33,35,37,38,40]","34","giraff","6","blue"
"html-keyboard-response","27","66437","0.0-27.0","zeevcheck1","null","","","","<p style=""font-size: 48px;""> + </p>","null","fixation","","","","","","","","","","","","","","","","","","","","","","","","blue"
"html-keyboard-response","28","67939","0.0-28.0","zeevcheck1","null","","","","<span class='grid'><div> </div> <div> </div> <div class='blue' style='background-position:2900% 0%;margin-top:35px'></div> <div> </div> <div> </div> <div class='blue' style='background-position:2600% 0%;margin-top:47px'></div> <div class='blue' style='background-position:3700% 0%;margin-top:31px'></div> <div class='blue' style='background-position:2700% 0%;margin-top:41px'></div> <div> </div> <div class='blue' style='background-position:3400% 0%;margin-top:21px'></div> <div class='blue' style='background-position:3200% 0%;margin-top:36px'></div> <div> </div> <div class='blue' style='background-position:3500% 0%;margin-top:25px'></div> <div class='blue' style='background-position:3100% 0%;margin-top:30px'></div> <div class='blue' style='background-position:3800% 0%;margin-top:43px'></div> <div class='blue' style='background-position:3300% 0%;margin-top:40px'></div> <div class='blue' style='background-position:4000% 0%;margin-top:21px'></div> <div> </div> <div class='blue' style='background-position:3400% 0%;margin-top:27px'></div></span>","null","stimulus","{""index"":0,""type"":""experimental"",""array_length"":8,""meanVal"":34,""color"":""blue""}","","","","","","","","","","","","","","","","","","","","","","","blue"
"image-slider-response_noButton","29","69786","0.0-29.0","zeevcheck1","1844","","","","img/blue1.jpg,img/blue2.jpg,img/blue3.jpg,img/blue4.jpg,img/blue5.jpg,img/blue6.jpg,img/blue7.jpg,img/blue8.jpg,img/blue9.jpg,img/blue10.jpg,img/blue11.jpg,img/blue12.jpg,img/blue13.jpg,img/blue14.jpg,img/blue15.jpg,img/blue16.jpg,img/blue17.jpg,img/blue18.jpg,img/blue19.jpg,img/blue20.jpg,img/blue21.jpg,img/blue22.jpg,img/blue23.jpg,img/blue24.jpg,img/blue25.jpg,img/blue26.jpg,img/blue27.jpg,img/blue28.jpg,img/blue29.jpg,img/blue30.jpg,img/blue31.jpg,img/blue32.jpg,img/blue33.jpg,img/blue34.jpg,img/blue35.jpg,img/blue36.jpg,img/blue37.jpg,img/blue38.jpg,img/blue39.jpg,img/blue40.jpg,img/blue41.jpg,img/blue42.jpg,img/blue43.jpg,img/blue44.jpg,img/blue45.jpg,img/blue46.jpg,img/blue47.jpg,img/blue48.jpg,img/blue49.jpg,img/blue50.jpg","","response","{""index"":1,""type"":""experimental"",""array_length"":12,""meanVal"":33,""color"":""blue""}","image-slider-response_noButton","<p>how blue was the stimulus in your opinion?</p>","1","50","0","function morphedScaleBlue() {
  // defining a few helper functions
  function nrange(size, startAt = 0) {
    return [...Array(size).keys()].map(i => i + startAt);
  };

  function fillArray(value, len) {
    var arr = [];
    for (var i = 0; i < len; i++) {
      arr.push(value);
    }
    return arr;
  };

  function generateSlices(vWidth, nSlices) {
    var step = vWidth*0.6/(nSlices-2);
    var stepArray = fillArray(step,nSlices-2)
    stepArray.unshift(0.2*vWidth)
    stepArray.push(0.2*vWidth)

    var bounds = [];
    
    for (var i = 0; i < nSlices; i++) {
      if (i==0) {
        bounds.push([(i*stepArray[i]), (i*stepArray[i])+stepArray[i]])
      } else if (i>0 && i!=nSlices-1) {
        bounds.push([(i*stepArray[i]+0.2*vWidth), (i*stepArray[i])+stepArray[i]+0.2*vWidth])
      } else {
        bounds.push([(vWidth-0.2*vWidth), vWidth])  
      }
    };
    return bounds;
  };
  
  // start trial timer
  var startTime = (new Date()).getTime();
  // get trial data
  var trialData = jsPsych.currentTrial();

  // remove the picture scales and the slider
  $('.jspsych-image-slider-response_noButton-container').css(""visibility"", ""hidden"");
  $('img').remove();
  var imgScale = getScaleBlue();
  
  // derive the letter of the image filenames
  var imgBase = imgScale[0].split('img/')[1].split('.jpg')[0].replace(/\d+/g, '');
  
  // split the number of the image filenames off from the rest of it
  var nScale = [];
  for (var i = 0; i < imgScale.length-1; i++) {
    var n = imgScale[i].split('img/')[1].split('.jpg')[0].split(imgBase)[1];
    nScale.push(n);
  };
  
  // calculate the element width, and slice it up into sections
  var vWidth = $(document).width();
  var nSlices = nScale.length;
  var slices = generateSlices(vWidth, nSlices);

  // setting up initial vertical line to start the mousemove functionality
  var vHeight = $(document).height()-8;
  var lineSlice = vWidth / 10;
  var vertLine = `<div style=""border-left:black;border-style:solid;margin-left:${lineSlice}px; height:${vHeight}px;width:0px;position:absolute;"" id=""vertLine""></div>`;
  var linePrompt = `<div id=""linePrompt""><div style=""font-size:50px;position:absolute;margin-left:${lineSlice*1.3}px;margin-top:${vHeight/2}px""></div><div style=""position:absolute;margin-left:${lineSlice*1.2}px;margin-top:${vHeight/2}px;z-index:5;"">Move mouse left of the line to begin</div></div>`;
  $("".jspsych-content-wrapper"").prepend(vertLine);
  $("".jspsych-content-wrapper"").prepend(linePrompt);
  
  // hide prompt until the trial is begun
  $('#jspsych-content > p').css(""visibility"", ""hidden"");

  // initialize the central image with the most neutral one (i.e. from
  // the middle of the scale) and set the image to be blurred
  var initialImage = imgScale[0];
  $('#jspsych-image-slider-response_noButton-stimulus').append(`<img src=""${initialImage}"" style=""filter:blur(4px);visibility:hidden;"" id=""changeable-image""/>`);

  // ADD VISUAL SCALE SHOWING MIN/MAX
  var scaleWidth = vWidth * 0.6;
  var scaleLeft = vWidth * 0.2;
  var scaleHtml = `
    <div id=""scale-container"" style=""position:absolute; bottom:120px; left:${scaleLeft}px; width:${scaleWidth}px; height:30px; background-color:rgba(220,220,220,0.7); border-radius:5px; display:none; z-index:10;"">
      <div style=""position:absolute; left:0px; width:2px; height:30px; background-color:black;""></div>
      <div style=""position:absolute; left:0px; top:32px; font-size:12px; color:black;"">Min (1)</div>
      <div style=""position:absolute; right:0px; width:2px; height:30px; background-color:black;""></div>
      <div style=""position:absolute; right:0px; top:32px; font-size:12px; color:black;"">Max (50)</div>
      <div id=""current-marker"" style=""position:absolute; left:0px; width:2px; height:30px; background-color:blue; display:none;""></div>
    </div>
  `;
  $("".jspsych-content-wrapper"").append(scaleHtml);

  // workaround with a global variable
  window.__imageMouseOver = {
    lineSlice: lineSlice,
    slices: slices,
    nScale: nScale,
    imgBase: imgBase,
    startTime: startTime,
    trialData: trialData,
    sliceSelected: 0,
  };
  var __listenerBools = {};

  // define mousemove event listener that changes image
  function changeImg(event) {
    var mouseX = Math.floor(event.pageX);
    
    // Show the scale after interaction begins
    $(""#scale-container"").css(""display"", ""block"");
    
    // Update current marker position based on mouse position
    var scaleWidth = $(""#scale-container"").width();
    var relativePos = Math.max(0, Math.min(mouseX - scaleLeft, scaleWidth));
    var percentPos = (relativePos / scaleWidth) * 100;
    
    $(""#current-marker"").css({
      ""left"": `${relativePos}px`,
      ""display"": ""block""
    });
    
    for (var i = 0; i < __imageMouseOver.slices.length; i++) {
      // if mouse X position is within the bounds of the X axis slice,
      // change the image to one that is indexed to that slice
      if (mouseX >= __imageMouseOver.slices[i][0] && mouseX <= __imageMouseOver.slices[i][1]) {
        // capture which slice is selected
        __imageMouseOver.sliceSelected = i;
        // update img src to the picture that corresponds to that slice
        $('#changeable-image').attr('src', `img/${__imageMouseOver.imgBase}${__imageMouseOver.nScale[i]}.jpg`);
      }
    };
  };
  
  // define the click listener that ends trial
  function clickHandler(event) {
    if (__listenerBools['mousemove']) {
      // derive trial data
      var trialData = __imageMouseOver.trialData;
      var end_time = (new Date()).getTime();
      var rt = end_time - __imageMouseOver.startTime;
      trialData['rt'] = rt;
      trialData['stimulus_duration'] = rt;
      trialData['trial_duration'] = rt;
      trialData['imageSelected'] = `${__imageMouseOver.imgBase}${__imageMouseOver.nScale[__imageMouseOver.sliceSelected]}.jpg`
      trialData['indexSelected'] = __imageMouseOver.sliceSelected;
      // turn off listeners
      $(document).off('mousemove');
      $(document).off('click');
      // clean up variable namespaces
      delete window.__imageMouseOver
      delete __listenerBools;
      // clean up scale
      $(""#scale-container"").remove();
      // finish the trial with trial data
      jsPsych.finishTrial(trialData);
    };
  };

  function verticalLineInit(event) {
    var mouseX = Math.floor(event.pageX);
    if (mouseX <= __imageMouseOver.lineSlice) {
      $(""#vertLine"").remove();
      $(""#linePrompt"").remove();
      $(""#jspsych-image-slider-response_noButton-stimulus > img"").css({
        ""filter"":""blur(0px)"",
        ""visibility"": ""visible"",
      });
      $('#jspsych-content > p').css(""visibility"", ""visible"");
      $('.jspsych-image-slider-response_noButton-').css(""visibility"", ""visible"");
      
      __listenerBools['mousemove'] = true;
      // turn off THIS mouse move listener
      $(document).off(""mousemove"");
      // turn on the mouse move listener that changes the image
      $(document).mousemove(changeImg);
      // add mouse click listener
      $(document).on('click', clickHandler);
    };
  };

  // turn on the vertical line mouse move listener
  $(document).mousemove(verticalLineInit);
}","[object Object]","0","","Continue","1844","1844","true","blue49.jpg","48","500","blue","12","[26,29,27,31,33,32,34,34,35,37,38,40]","33","giraff","7","blue"
"html-keyboard-response","30","70387","0.0-30.0","zeevcheck1","null","","","","<p style=""font-size: 48px;""> + </p>","null","fixation","","","","","","","","","","","","","","","","","","","","","","","","blue"
"html-keyboard-response","31","71889","0.0-31.0","zeevcheck1","null","","","","<span class='grid'><div> </div> <div> </div> <div> </div> <div> </div> <div> </div> <div> </div> <div class='blue' style='background-position:1500% 0%;margin-top:26px'></div> <div> </div> <div> </div> <div> </div> <div> </div> <div> </div> <div class='blue' style='background-position:900% 0%;margin-top:45px'></div> <div> </div></span>","null","stimulus","{""index"":1,""type"":""experimental"",""array_length"":12,""meanVal"":33,""color"":""blue""}","","","","","","","","","","","","","","","","","","","","","","","blue"
"image-slider-response_noButton","32","73899","0.0-32.0","zeevcheck1","2009","","","","img/blue1.jpg,img/blue2.jpg,img/blue3.jpg,img/blue4.jpg,img/blue5.jpg,img/blue6.jpg,img/blue7.jpg,img/blue8.jpg,img/blue9.jpg,img/blue10.jpg,img/blue11.jpg,img/blue12.jpg,img/blue13.jpg,img/blue14.jpg,img/blue15.jpg,img/blue16.jpg,img/blue17.jpg,img/blue18.jpg,img/blue19.jpg,img/blue20.jpg,img/blue21.jpg,img/blue22.jpg,img/blue23.jpg,img/blue24.jpg,img/blue25.jpg,img/blue26.jpg,img/blue27.jpg,img/blue28.jpg,img/blue29.jpg,img/blue30.jpg,img/blue31.jpg,img/blue32.jpg,img/blue33.jpg,img/blue34.jpg,img/blue35.jpg,img/blue36.jpg,img/blue37.jpg,img/blue38.jpg,img/blue39.jpg,img/blue40.jpg,img/blue41.jpg,img/blue42.jpg,img/blue43.jpg,img/blue44.jpg,img/blue45.jpg,img/blue46.jpg,img/blue47.jpg,img/blue48.jpg,img/blue49.jpg,img/blue50.jpg","","response","{""index"":2,""type"":""experimental"",""array_length"":2,""meanVal"":12,""color"":""blue""}","image-slider-response_noButton","<p>how blue was the stimulus in your opinion?</p>","1","50","0","function morphedScaleBlue() {
  // defining a few helper functions
  function nrange(size, startAt = 0) {
    return [...Array(size).keys()].map(i => i + startAt);
  };

  function fillArray(value, len) {
    var arr = [];
    for (var i = 0; i < len; i++) {
      arr.push(value);
    }
    return arr;
  };

  function generateSlices(vWidth, nSlices) {
    var step = vWidth*0.6/(nSlices-2);
    var stepArray = fillArray(step,nSlices-2)
    stepArray.unshift(0.2*vWidth)
    stepArray.push(0.2*vWidth)

    var bounds = [];
    
    for (var i = 0; i < nSlices; i++) {
      if (i==0) {
        bounds.push([(i*stepArray[i]), (i*stepArray[i])+stepArray[i]])
      } else if (i>0 && i!=nSlices-1) {
        bounds.push([(i*stepArray[i]+0.2*vWidth), (i*stepArray[i])+stepArray[i]+0.2*vWidth])
      } else {
        bounds.push([(vWidth-0.2*vWidth), vWidth])  
      }
    };
    return bounds;
  };
  
  // start trial timer
  var startTime = (new Date()).getTime();
  // get trial data
  var trialData = jsPsych.currentTrial();

  // remove the picture scales and the slider
  $('.jspsych-image-slider-response_noButton-container').css(""visibility"", ""hidden"");
  $('img').remove();
  var imgScale = getScaleBlue();
  
  // derive the letter of the image filenames
  var imgBase = imgScale[0].split('img/')[1].split('.jpg')[0].replace(/\d+/g, '');
  
  // split the number of the image filenames off from the rest of it
  var nScale = [];
  for (var i = 0; i < imgScale.length-1; i++) {
    var n = imgScale[i].split('img/')[1].split('.jpg')[0].split(imgBase)[1];
    nScale.push(n);
  };
  
  // calculate the element width, and slice it up into sections
  var vWidth = $(document).width();
  var nSlices = nScale.length;
  var slices = generateSlices(vWidth, nSlices);

  // setting up initial vertical line to start the mousemove functionality
  var vHeight = $(document).height()-8;
  var lineSlice = vWidth / 10;
  var vertLine = `<div style=""border-left:black;border-style:solid;margin-left:${lineSlice}px; height:${vHeight}px;width:0px;position:absolute;"" id=""vertLine""></div>`;
  var linePrompt = `<div id=""linePrompt""><div style=""font-size:50px;position:absolute;margin-left:${lineSlice*1.3}px;margin-top:${vHeight/2}px""></div><div style=""position:absolute;margin-left:${lineSlice*1.2}px;margin-top:${vHeight/2}px;z-index:5;"">Move mouse left of the line to begin</div></div>`;
  $("".jspsych-content-wrapper"").prepend(vertLine);
  $("".jspsych-content-wrapper"").prepend(linePrompt);
  
  // hide prompt until the trial is begun
  $('#jspsych-content > p').css(""visibility"", ""hidden"");

  // initialize the central image with the most neutral one (i.e. from
  // the middle of the scale) and set the image to be blurred
  var initialImage = imgScale[0];
  $('#jspsych-image-slider-response_noButton-stimulus').append(`<img src=""${initialImage}"" style=""filter:blur(4px);visibility:hidden;"" id=""changeable-image""/>`);

  // ADD VISUAL SCALE SHOWING MIN/MAX
  var scaleWidth = vWidth * 0.6;
  var scaleLeft = vWidth * 0.2;
  var scaleHtml = `
    <div id=""scale-container"" style=""position:absolute; bottom:120px; left:${scaleLeft}px; width:${scaleWidth}px; height:30px; background-color:rgba(220,220,220,0.7); border-radius:5px; display:none; z-index:10;"">
      <div style=""position:absolute; left:0px; width:2px; height:30px; background-color:black;""></div>
      <div style=""position:absolute; left:0px; top:32px; font-size:12px; color:black;"">Min (1)</div>
      <div style=""position:absolute; right:0px; width:2px; height:30px; background-color:black;""></div>
      <div style=""position:absolute; right:0px; top:32px; font-size:12px; color:black;"">Max (50)</div>
      <div id=""current-marker"" style=""position:absolute; left:0px; width:2px; height:30px; background-color:blue; display:none;""></div>
    </div>
  `;
  $("".jspsych-content-wrapper"").append(scaleHtml);

  // workaround with a global variable
  window.__imageMouseOver = {
    lineSlice: lineSlice,
    slices: slices,
    nScale: nScale,
    imgBase: imgBase,
    startTime: startTime,
    trialData: trialData,
    sliceSelected: 0,
  };
  var __listenerBools = {};

  // define mousemove event listener that changes image
  function changeImg(event) {
    var mouseX = Math.floor(event.pageX);
    
    // Show the scale after interaction begins
    $(""#scale-container"").css(""display"", ""block"");
    
    // Update current marker position based on mouse position
    var scaleWidth = $(""#scale-container"").width();
    var relativePos = Math.max(0, Math.min(mouseX - scaleLeft, scaleWidth));
    var percentPos = (relativePos / scaleWidth) * 100;
    
    $(""#current-marker"").css({
      ""left"": `${relativePos}px`,
      ""display"": ""block""
    });
    
    for (var i = 0; i < __imageMouseOver.slices.length; i++) {
      // if mouse X position is within the bounds of the X axis slice,
      // change the image to one that is indexed to that slice
      if (mouseX >= __imageMouseOver.slices[i][0] && mouseX <= __imageMouseOver.slices[i][1]) {
        // capture which slice is selected
        __imageMouseOver.sliceSelected = i;
        // update img src to the picture that corresponds to that slice
        $('#changeable-image').attr('src', `img/${__imageMouseOver.imgBase}${__imageMouseOver.nScale[i]}.jpg`);
      }
    };
  };
  
  // define the click listener that ends trial
  function clickHandler(event) {
    if (__listenerBools['mousemove']) {
      // derive trial data
      var trialData = __imageMouseOver.trialData;
      var end_time = (new Date()).getTime();
      var rt = end_time - __imageMouseOver.startTime;
      trialData['rt'] = rt;
      trialData['stimulus_duration'] = rt;
      trialData['trial_duration'] = rt;
      trialData['imageSelected'] = `${__imageMouseOver.imgBase}${__imageMouseOver.nScale[__imageMouseOver.sliceSelected]}.jpg`
      trialData['indexSelected'] = __imageMouseOver.sliceSelected;
      // turn off listeners
      $(document).off('mousemove');
      $(document).off('click');
      // clean up variable namespaces
      delete window.__imageMouseOver
      delete __listenerBools;
      // clean up scale
      $(""#scale-container"").remove();
      // finish the trial with trial data
      jsPsych.finishTrial(trialData);
    };
  };

  function verticalLineInit(event) {
    var mouseX = Math.floor(event.pageX);
    if (mouseX <= __imageMouseOver.lineSlice) {
      $(""#vertLine"").remove();
      $(""#linePrompt"").remove();
      $(""#jspsych-image-slider-response_noButton-stimulus > img"").css({
        ""filter"":""blur(0px)"",
        ""visibility"": ""visible"",
      });
      $('#jspsych-content > p').css(""visibility"", ""visible"");
      $('.jspsych-image-slider-response_noButton-').css(""visibility"", ""visible"");
      
      __listenerBools['mousemove'] = true;
      // turn off THIS mouse move listener
      $(document).off(""mousemove"");
      // turn on the mouse move listener that changes the image
      $(document).mousemove(changeImg);
      // add mouse click listener
      $(document).on('click', clickHandler);
    };
  };

  // turn on the vertical line mouse move listener
  $(document).mousemove(verticalLineInit);
}","[object Object]","0","","Continue","2009","2009","true","blue1.jpg","0","600","blue","2","[9,15]","12","giraff","8","blue"
"html-keyboard-response","33","74301","0.0-33.0","zeevcheck1","null","","","","<p style=""font-size: 48px;""> + </p>","null","fixation","","","","","","","","","","","","","","","","","","","","","","","","blue"
"html-keyboard-response","34","75804","0.0-34.0","zeevcheck1","null","","","","<span class='grid'><div> </div> <div> </div> <div> </div> <div> </div> <div> </div> <div> </div> <div> </div> <div> </div> <div class='blue' style='background-position:4400% 0%;margin-top:27px'></div> <div> </div> <div> </div> <div class='blue' style='background-position:3800% 0%;margin-top:48px'></div> <div> </div> <div> </div></span>","null","stimulus","{""index"":2,""type"":""experimental"",""array_length"":2,""meanVal"":12,""color"":""blue""}","","","","","","","","","","","","","","","","","","","","","","","blue"
"image-slider-response_noButton","35","77367","0.0-35.0","zeevcheck1","1560","","","","img/blue1.jpg,img/blue2.jpg,img/blue3.jpg,img/blue4.jpg,img/blue5.jpg,img/blue6.jpg,img/blue7.jpg,img/blue8.jpg,img/blue9.jpg,img/blue10.jpg,img/blue11.jpg,img/blue12.jpg,img/blue13.jpg,img/blue14.jpg,img/blue15.jpg,img/blue16.jpg,img/blue17.jpg,img/blue18.jpg,img/blue19.jpg,img/blue20.jpg,img/blue21.jpg,img/blue22.jpg,img/blue23.jpg,img/blue24.jpg,img/blue25.jpg,img/blue26.jpg,img/blue27.jpg,img/blue28.jpg,img/blue29.jpg,img/blue30.jpg,img/blue31.jpg,img/blue32.jpg,img/blue33.jpg,img/blue34.jpg,img/blue35.jpg,img/blue36.jpg,img/blue37.jpg,img/blue38.jpg,img/blue39.jpg,img/blue40.jpg,img/blue41.jpg,img/blue42.jpg,img/blue43.jpg,img/blue44.jpg,img/blue45.jpg,img/blue46.jpg,img/blue47.jpg,img/blue48.jpg,img/blue49.jpg,img/blue50.jpg","","response","{""index"":3,""type"":""experimental"",""array_length"":2,""meanVal"":41,""color"":""blue""}","image-slider-response_noButton","<p>how blue was the stimulus in your opinion?</p>","1","50","0","function morphedScaleBlue() {
  // defining a few helper functions
  function nrange(size, startAt = 0) {
    return [...Array(size).keys()].map(i => i + startAt);
  };

  function fillArray(value, len) {
    var arr = [];
    for (var i = 0; i < len; i++) {
      arr.push(value);
    }
    return arr;
  };

  function generateSlices(vWidth, nSlices) {
    var step = vWidth*0.6/(nSlices-2);
    var stepArray = fillArray(step,nSlices-2)
    stepArray.unshift(0.2*vWidth)
    stepArray.push(0.2*vWidth)

    var bounds = [];
    
    for (var i = 0; i < nSlices; i++) {
      if (i==0) {
        bounds.push([(i*stepArray[i]), (i*stepArray[i])+stepArray[i]])
      } else if (i>0 && i!=nSlices-1) {
        bounds.push([(i*stepArray[i]+0.2*vWidth), (i*stepArray[i])+stepArray[i]+0.2*vWidth])
      } else {
        bounds.push([(vWidth-0.2*vWidth), vWidth])  
      }
    };
    return bounds;
  };
  
  // start trial timer
  var startTime = (new Date()).getTime();
  // get trial data
  var trialData = jsPsych.currentTrial();

  // remove the picture scales and the slider
  $('.jspsych-image-slider-response_noButton-container').css(""visibility"", ""hidden"");
  $('img').remove();
  var imgScale = getScaleBlue();
  
  // derive the letter of the image filenames
  var imgBase = imgScale[0].split('img/')[1].split('.jpg')[0].replace(/\d+/g, '');
  
  // split the number of the image filenames off from the rest of it
  var nScale = [];
  for (var i = 0; i < imgScale.length-1; i++) {
    var n = imgScale[i].split('img/')[1].split('.jpg')[0].split(imgBase)[1];
    nScale.push(n);
  };
  
  // calculate the element width, and slice it up into sections
  var vWidth = $(document).width();
  var nSlices = nScale.length;
  var slices = generateSlices(vWidth, nSlices);

  // setting up initial vertical line to start the mousemove functionality
  var vHeight = $(document).height()-8;
  var lineSlice = vWidth / 10;
  var vertLine = `<div style=""border-left:black;border-style:solid;margin-left:${lineSlice}px; height:${vHeight}px;width:0px;position:absolute;"" id=""vertLine""></div>`;
  var linePrompt = `<div id=""linePrompt""><div style=""font-size:50px;position:absolute;margin-left:${lineSlice*1.3}px;margin-top:${vHeight/2}px""></div><div style=""position:absolute;margin-left:${lineSlice*1.2}px;margin-top:${vHeight/2}px;z-index:5;"">Move mouse left of the line to begin</div></div>`;
  $("".jspsych-content-wrapper"").prepend(vertLine);
  $("".jspsych-content-wrapper"").prepend(linePrompt);
  
  // hide prompt until the trial is begun
  $('#jspsych-content > p').css(""visibility"", ""hidden"");

  // initialize the central image with the most neutral one (i.e. from
  // the middle of the scale) and set the image to be blurred
  var initialImage = imgScale[0];
  $('#jspsych-image-slider-response_noButton-stimulus').append(`<img src=""${initialImage}"" style=""filter:blur(4px);visibility:hidden;"" id=""changeable-image""/>`);

  // ADD VISUAL SCALE SHOWING MIN/MAX
  var scaleWidth = vWidth * 0.6;
  var scaleLeft = vWidth * 0.2;
  var scaleHtml = `
    <div id=""scale-container"" style=""position:absolute; bottom:120px; left:${scaleLeft}px; width:${scaleWidth}px; height:30px; background-color:rgba(220,220,220,0.7); border-radius:5px; display:none; z-index:10;"">
      <div style=""position:absolute; left:0px; width:2px; height:30px; background-color:black;""></div>
      <div style=""position:absolute; left:0px; top:32px; font-size:12px; color:black;"">Min (1)</div>
      <div style=""position:absolute; right:0px; width:2px; height:30px; background-color:black;""></div>
      <div style=""position:absolute; right:0px; top:32px; font-size:12px; color:black;"">Max (50)</div>
      <div id=""current-marker"" style=""position:absolute; left:0px; width:2px; height:30px; background-color:blue; display:none;""></div>
    </div>
  `;
  $("".jspsych-content-wrapper"").append(scaleHtml);

  // workaround with a global variable
  window.__imageMouseOver = {
    lineSlice: lineSlice,
    slices: slices,
    nScale: nScale,
    imgBase: imgBase,
    startTime: startTime,
    trialData: trialData,
    sliceSelected: 0,
  };
  var __listenerBools = {};

  // define mousemove event listener that changes image
  function changeImg(event) {
    var mouseX = Math.floor(event.pageX);
    
    // Show the scale after interaction begins
    $(""#scale-container"").css(""display"", ""block"");
    
    // Update current marker position based on mouse position
    var scaleWidth = $(""#scale-container"").width();
    var relativePos = Math.max(0, Math.min(mouseX - scaleLeft, scaleWidth));
    var percentPos = (relativePos / scaleWidth) * 100;
    
    $(""#current-marker"").css({
      ""left"": `${relativePos}px`,
      ""display"": ""block""
    });
    
    for (var i = 0; i < __imageMouseOver.slices.length; i++) {
      // if mouse X position is within the bounds of the X axis slice,
      // change the image to one that is indexed to that slice
      if (mouseX >= __imageMouseOver.slices[i][0] && mouseX <= __imageMouseOver.slices[i][1]) {
        // capture which slice is selected
        __imageMouseOver.sliceSelected = i;
        // update img src to the picture that corresponds to that slice
        $('#changeable-image').attr('src', `img/${__imageMouseOver.imgBase}${__imageMouseOver.nScale[i]}.jpg`);
      }
    };
  };
  
  // define the click listener that ends trial
  function clickHandler(event) {
    if (__listenerBools['mousemove']) {
      // derive trial data
      var trialData = __imageMouseOver.trialData;
      var end_time = (new Date()).getTime();
      var rt = end_time - __imageMouseOver.startTime;
      trialData['rt'] = rt;
      trialData['stimulus_duration'] = rt;
      trialData['trial_duration'] = rt;
      trialData['imageSelected'] = `${__imageMouseOver.imgBase}${__imageMouseOver.nScale[__imageMouseOver.sliceSelected]}.jpg`
      trialData['indexSelected'] = __imageMouseOver.sliceSelected;
      // turn off listeners
      $(document).off('mousemove');
      $(document).off('click');
      // clean up variable namespaces
      delete window.__imageMouseOver
      delete __listenerBools;
      // clean up scale
      $(""#scale-container"").remove();
      // finish the trial with trial data
      jsPsych.finishTrial(trialData);
    };
  };

  function verticalLineInit(event) {
    var mouseX = Math.floor(event.pageX);
    if (mouseX <= __imageMouseOver.lineSlice) {
      $(""#vertLine"").remove();
      $(""#linePrompt"").remove();
      $(""#jspsych-image-slider-response_noButton-stimulus > img"").css({
        ""filter"":""blur(0px)"",
        ""visibility"": ""visible"",
      });
      $('#jspsych-content > p').css(""visibility"", ""visible"");
      $('.jspsych-image-slider-response_noButton-').css(""visibility"", ""visible"");
      
      __listenerBools['mousemove'] = true;
      // turn off THIS mouse move listener
      $(document).off(""mousemove"");
      // turn on the mouse move listener that changes the image
      $(document).mousemove(changeImg);
      // add mouse click listener
      $(document).on('click', clickHandler);
    };
  };

  // turn on the vertical line mouse move listener
  $(document).mousemove(verticalLineInit);
}","[object Object]","0","","Continue","1560","1560","true","blue49.jpg","48","400","blue","2","[38,44]","41","giraff","9","blue"
"html-keyboard-response","36","77768","0.0-36.0","zeevcheck1","null","","","","<p style=""font-size: 48px;""> + </p>","null","fixation","","","","","","","","","","","","","","","","","","","","","","","","blue"
"html-keyboard-response","37","79270","0.0-37.0","zeevcheck1","null","","","","<span class='grid'><div class='blue' style='background-position:4300% 0%;margin-top:33px'></div> <div> </div> <div class='blue' style='background-position:4600% 0%;margin-top:29px'></div> <div class='blue' style='background-position:3900% 0%;margin-top:22px'></div> <div> </div> <div> </div> <div> </div> <div class='blue' style='background-position:3400% 0%;margin-top:38px'></div> <div> </div> <div> </div> <div> </div> <div> </div> <div class='blue' style='background-position:4400% 0%;margin-top:39px'></div> <div class='blue' style='background-position:3700% 0%;margin-top:25px'></div> <div> </div> <div class='blue' style='background-position:3600% 0%;margin-top:41px'></div> <div class='blue' style='background-position:4100% 0%;margin-top:42px'></div></span>","null","stimulus","{""index"":3,""type"":""experimental"",""array_length"":2,""meanVal"":41,""color"":""blue""}","","","","","","","","","","","","","","","","","","","","","","","blue"
"image-slider-response_noButton","38","80947","0.0-38.0","zeevcheck1","1675","","","","img/blue1.jpg,img/blue2.jpg,img/blue3.jpg,img/blue4.jpg,img/blue5.jpg,img/blue6.jpg,img/blue7.jpg,img/blue8.jpg,img/blue9.jpg,img/blue10.jpg,img/blue11.jpg,img/blue12.jpg,img/blue13.jpg,img/blue14.jpg,img/blue15.jpg,img/blue16.jpg,img/blue17.jpg,img/blue18.jpg,img/blue19.jpg,img/blue20.jpg,img/blue21.jpg,img/blue22.jpg,img/blue23.jpg,img/blue24.jpg,img/blue25.jpg,img/blue26.jpg,img/blue27.jpg,img/blue28.jpg,img/blue29.jpg,img/blue30.jpg,img/blue31.jpg,img/blue32.jpg,img/blue33.jpg,img/blue34.jpg,img/blue35.jpg,img/blue36.jpg,img/blue37.jpg,img/blue38.jpg,img/blue39.jpg,img/blue40.jpg,img/blue41.jpg,img/blue42.jpg,img/blue43.jpg,img/blue44.jpg,img/blue45.jpg,img/blue46.jpg,img/blue47.jpg,img/blue48.jpg,img/blue49.jpg,img/blue50.jpg","","response","{""index"":4,""type"":""experimental"",""array_length"":8,""meanVal"":40,""color"":""blue""}","image-slider-response_noButton","<p>how blue was the stimulus in your opinion?</p>","1","50","0","function morphedScaleBlue() {
  // defining a few helper functions
  function nrange(size, startAt = 0) {
    return [...Array(size).keys()].map(i => i + startAt);
  };

  function fillArray(value, len) {
    var arr = [];
    for (var i = 0; i < len; i++) {
      arr.push(value);
    }
    return arr;
  };

  function generateSlices(vWidth, nSlices) {
    var step = vWidth*0.6/(nSlices-2);
    var stepArray = fillArray(step,nSlices-2)
    stepArray.unshift(0.2*vWidth)
    stepArray.push(0.2*vWidth)

    var bounds = [];
    
    for (var i = 0; i < nSlices; i++) {
      if (i==0) {
        bounds.push([(i*stepArray[i]), (i*stepArray[i])+stepArray[i]])
      } else if (i>0 && i!=nSlices-1) {
        bounds.push([(i*stepArray[i]+0.2*vWidth), (i*stepArray[i])+stepArray[i]+0.2*vWidth])
      } else {
        bounds.push([(vWidth-0.2*vWidth), vWidth])  
      }
    };
    return bounds;
  };
  
  // start trial timer
  var startTime = (new Date()).getTime();
  // get trial data
  var trialData = jsPsych.currentTrial();

  // remove the picture scales and the slider
  $('.jspsych-image-slider-response_noButton-container').css(""visibility"", ""hidden"");
  $('img').remove();
  var imgScale = getScaleBlue();
  
  // derive the letter of the image filenames
  var imgBase = imgScale[0].split('img/')[1].split('.jpg')[0].replace(/\d+/g, '');
  
  // split the number of the image filenames off from the rest of it
  var nScale = [];
  for (var i = 0; i < imgScale.length-1; i++) {
    var n = imgScale[i].split('img/')[1].split('.jpg')[0].split(imgBase)[1];
    nScale.push(n);
  };
  
  // calculate the element width, and slice it up into sections
  var vWidth = $(document).width();
  var nSlices = nScale.length;
  var slices = generateSlices(vWidth, nSlices);

  // setting up initial vertical line to start the mousemove functionality
  var vHeight = $(document).height()-8;
  var lineSlice = vWidth / 10;
  var vertLine = `<div style=""border-left:black;border-style:solid;margin-left:${lineSlice}px; height:${vHeight}px;width:0px;position:absolute;"" id=""vertLine""></div>`;
  var linePrompt = `<div id=""linePrompt""><div style=""font-size:50px;position:absolute;margin-left:${lineSlice*1.3}px;margin-top:${vHeight/2}px""></div><div style=""position:absolute;margin-left:${lineSlice*1.2}px;margin-top:${vHeight/2}px;z-index:5;"">Move mouse left of the line to begin</div></div>`;
  $("".jspsych-content-wrapper"").prepend(vertLine);
  $("".jspsych-content-wrapper"").prepend(linePrompt);
  
  // hide prompt until the trial is begun
  $('#jspsych-content > p').css(""visibility"", ""hidden"");

  // initialize the central image with the most neutral one (i.e. from
  // the middle of the scale) and set the image to be blurred
  var initialImage = imgScale[0];
  $('#jspsych-image-slider-response_noButton-stimulus').append(`<img src=""${initialImage}"" style=""filter:blur(4px);visibility:hidden;"" id=""changeable-image""/>`);

  // ADD VISUAL SCALE SHOWING MIN/MAX
  var scaleWidth = vWidth * 0.6;
  var scaleLeft = vWidth * 0.2;
  var scaleHtml = `
    <div id=""scale-container"" style=""position:absolute; bottom:120px; left:${scaleLeft}px; width:${scaleWidth}px; height:30px; background-color:rgba(220,220,220,0.7); border-radius:5px; display:none; z-index:10;"">
      <div style=""position:absolute; left:0px; width:2px; height:30px; background-color:black;""></div>
      <div style=""position:absolute; left:0px; top:32px; font-size:12px; color:black;"">Min (1)</div>
      <div style=""position:absolute; right:0px; width:2px; height:30px; background-color:black;""></div>
      <div style=""position:absolute; right:0px; top:32px; font-size:12px; color:black;"">Max (50)</div>
      <div id=""current-marker"" style=""position:absolute; left:0px; width:2px; height:30px; background-color:blue; display:none;""></div>
    </div>
  `;
  $("".jspsych-content-wrapper"").append(scaleHtml);

  // workaround with a global variable
  window.__imageMouseOver = {
    lineSlice: lineSlice,
    slices: slices,
    nScale: nScale,
    imgBase: imgBase,
    startTime: startTime,
    trialData: trialData,
    sliceSelected: 0,
  };
  var __listenerBools = {};

  // define mousemove event listener that changes image
  function changeImg(event) {
    var mouseX = Math.floor(event.pageX);
    
    // Show the scale after interaction begins
    $(""#scale-container"").css(""display"", ""block"");
    
    // Update current marker position based on mouse position
    var scaleWidth = $(""#scale-container"").width();
    var relativePos = Math.max(0, Math.min(mouseX - scaleLeft, scaleWidth));
    var percentPos = (relativePos / scaleWidth) * 100;
    
    $(""#current-marker"").css({
      ""left"": `${relativePos}px`,
      ""display"": ""block""
    });
    
    for (var i = 0; i < __imageMouseOver.slices.length; i++) {
      // if mouse X position is within the bounds of the X axis slice,
      // change the image to one that is indexed to that slice
      if (mouseX >= __imageMouseOver.slices[i][0] && mouseX <= __imageMouseOver.slices[i][1]) {
        // capture which slice is selected
        __imageMouseOver.sliceSelected = i;
        // update img src to the picture that corresponds to that slice
        $('#changeable-image').attr('src', `img/${__imageMouseOver.imgBase}${__imageMouseOver.nScale[i]}.jpg`);
      }
    };
  };
  
  // define the click listener that ends trial
  function clickHandler(event) {
    if (__listenerBools['mousemove']) {
      // derive trial data
      var trialData = __imageMouseOver.trialData;
      var end_time = (new Date()).getTime();
      var rt = end_time - __imageMouseOver.startTime;
      trialData['rt'] = rt;
      trialData['stimulus_duration'] = rt;
      trialData['trial_duration'] = rt;
      trialData['imageSelected'] = `${__imageMouseOver.imgBase}${__imageMouseOver.nScale[__imageMouseOver.sliceSelected]}.jpg`
      trialData['indexSelected'] = __imageMouseOver.sliceSelected;
      // turn off listeners
      $(document).off('mousemove');
      $(document).off('click');
      // clean up variable namespaces
      delete window.__imageMouseOver
      delete __listenerBools;
      // clean up scale
      $(""#scale-container"").remove();
      // finish the trial with trial data
      jsPsych.finishTrial(trialData);
    };
  };

  function verticalLineInit(event) {
    var mouseX = Math.floor(event.pageX);
    if (mouseX <= __imageMouseOver.lineSlice) {
      $(""#vertLine"").remove();
      $(""#linePrompt"").remove();
      $(""#jspsych-image-slider-response_noButton-stimulus > img"").css({
        ""filter"":""blur(0px)"",
        ""visibility"": ""visible"",
      });
      $('#jspsych-content > p').css(""visibility"", ""visible"");
      $('.jspsych-image-slider-response_noButton-').css(""visibility"", ""visible"");
      
      __listenerBools['mousemove'] = true;
      // turn off THIS mouse move listener
      $(document).off(""mousemove"");
      // turn on the mouse move listener that changes the image
      $(document).mousemove(changeImg);
      // add mouse click listener
      $(document).on('click', clickHandler);
    };
  };

  // turn on the vertical line mouse move listener
  $(document).mousemove(verticalLineInit);
}","[object Object]","0","","Continue","1675","1675","true","blue1.jpg","0","400","blue","8","[34,36,37,39,41,43,44,46]","40","giraff","10","blue"
"html-keyboard-response","39","81349","0.0-39.0","zeevcheck1","null","","","","<p style=""font-size: 48px;""> + </p>","null","fixation","","","","","","","","","","","","","","","","","","","","","","","","blue"
"html-keyboard-response","40","82851","0.0-40.0","zeevcheck1","null","","","","<span class='grid'><div> </div> <div class='blue' style='background-position:3200% 0%;margin-top:24px'></div> <div> </div> <div> </div> <div> </div> <div> </div> <div> </div> <div class='blue' style='background-position:2600% 0%;margin-top:29px'></div> <div> </div> <div> </div> <div> </div> <div> </div> <div> </div> <div> </div></span>","null","stimulus","{""index"":4,""type"":""experimental"",""array_length"":8,""meanVal"":40,""color"":""blue""}","","","","","","","","","","","","","","","","","","","","","","","blue"
