"trial_type","trial_index","time_elapsed","internal_node_id","participant_id","rt","url","view_history","responses","stimulus","key_press","Name","config","type","prompt","step","max","start","on_load","data","min","labels","button_label","stimulus_duration","trial_duration","response_ends_trial","imageSelected","indexSelected","exp_type","fixationTime","faceIdentity","array_length","array_values","meanVal","description","trial","color","button_pressed","purpose"
"pavlovia","0","3","0.0-0.0","62728a4122289635e97d12f2","","","","","","","","","","","","","","","","","","","","","","","","","","","","","","","","","",""
"external-html","1","11393","0.0-1.0","62728a4122289635e97d12f2","11219.5","external_page.html","","","","","","","","","","","","","","","","","","","","","","","","","","","","","","","",""
"instructions","2","34695","0.0-2.0","62728a4122289635e97d12f2","23301.700000047684","","[{""page_index"":0,""viewing_time"":5431},{""page_index"":1,""viewing_time"":6426.600000023842},{""page_index"":2,""viewing_time"":9325.5},{""page_index"":3,""viewing_time"":2118.2000000476837}]","","","","","","","","","","","","","","","","","","","","","","","","","","","","","","",""
"survey-text","3","37666","0.0-3.0","62728a4122289635e97d12f2","2968.8000000715256","","","{""Q0"":""62728a4122289635e97d12f2""}","","","","","","","","","","","","","","","","","","","","","","","","","","","","","",""
"instructions","4","39291","0.0-4.0","62728a4122289635e97d12f2","1624.2999999523163","","[{""page_index"":0,""viewing_time"":1624}]","","","","","","","","","","","","","","","","","","","","","","","","","","","","","","",""
"survey-text","5","57206","0.0-5.0","62728a4122289635e97d12f2","17913","","","{""Q0"":""Three Giraffes standing next to each other.""}","","","","","","","","","","","","","","","","","","","","","","","","","","","","","",""
"survey-text","6","61990","0.0-6.0-0.0","62728a4122289635e97d12f2","4781.899999976158","","","{""Q0"":""but""}","","","","","","","","","","","","","","","","","","","","","","","","","","","","","",""
"html-keyboard-response","7","62499","0.0-7.0","62728a4122289635e97d12f2","null","","","","<p style=""font-size: 48px;""> + </p>","null","fixation","","","","","","","","","","","","","","","","","","","","","","","","","","",""
"html-keyboard-response","8","63999","0.0-8.0","62728a4122289635e97d12f2","null","","","","<span class='grid'><div class='red' style='background-position:100% 0%;margin-top:30px'></div> <div> </div> <div> </div> <div> </div> <div> </div> <div class='red' style='background-position:1300% 0%;margin-top:22px'></div> <div> </div> <div> </div> <div> </div> <div> </div> <div class='red' style='background-position:400% 0%;margin-top:31px'></div> <div> </div> <div> </div> <div> </div> <div class='red' style='background-position:300% 0%;margin-top:48px'></div></span>","null","stimulus","","","","","","","","","","","","","","","","","","","","","","","","","","",""
"image-slider-response_noButton","9","67960","0.0-9.0","62728a4122289635e97d12f2","3958","","","","img/red1.jpg,img/red2.jpg,img/red3.jpg,img/red4.jpg,img/red5.jpg,img/red6.jpg,img/red7.jpg,img/red8.jpg,img/red9.jpg,img/red10.jpg,img/red11.jpg,img/red12.jpg,img/red13.jpg,img/red14.jpg,img/red15.jpg,img/red16.jpg,img/red17.jpg,img/red18.jpg,img/red19.jpg,img/red20.jpg,img/red21.jpg,img/red22.jpg,img/red23.jpg,img/red24.jpg,img/red25.jpg,img/red26.jpg,img/red27.jpg,img/red28.jpg,img/red29.jpg,img/red30.jpg,img/red31.jpg,img/red32.jpg,img/red33.jpg,img/red34.jpg,img/red35.jpg,img/red36.jpg,img/red37.jpg,img/red38.jpg,img/red39.jpg,img/red40.jpg,img/red41.jpg,img/red42.jpg,img/red43.jpg,img/red44.jpg,img/red45.jpg,img/red46.jpg,img/red47.jpg,img/red48.jpg,img/red49.jpg,img/red50.jpg","","response","{""index"":0,""type"":""practice"",""color"":""red""}","image-slider-response_noButton","<p>what was the average redness of the array?</p>","1","50","0","function morphedScaleRed() {
    // defining a few helper functions
    function nrange(size, startAt = 0) {
      return [...Array(size).keys()].map(i => i + startAt);
    };
  
    function fillArray(value, len) {
      var arr = [];
      for (var i = 0; i < len; i++) {
        arr.push(value);
      }
      return arr;
    };
  
    function generateSlices(vWidth, nSlices) {
      var step = vWidth*0.6/(nSlices-2);
      var stepArray = fillArray(step,nSlices-2)
      stepArray.unshift(0.2*vWidth)
      stepArray.push(0.2*vWidth)
  
      var bounds = [];
      
      for (var i = 0; i < nSlices; i++) {
        if (i==0) {
          bounds.push([(i*stepArray[i]), (i*stepArray[i])+stepArray[i]])
        } else if (i>0 && i!=nSlices-1) {
          bounds.push([(i*stepArray[i]+0.2*vWidth), (i*stepArray[i])+stepArray[i]+0.2*vWidth])
        } else {
          bounds.push([(vWidth-0.2*vWidth), vWidth])  
        }
      };
      return bounds;
    };
    
    // start trial timer
    var startTime = (new Date()).getTime();
    // get trial data
    var trialData = jsPsych.currentTrial();
  
    // remove the picture scales and the slider
    $('.jspsych-image-slider-response_noButton-container').css(""visibility"", ""hidden"");
    $('img').remove();
    var imgScale = getScaleRed();
    
    // derive the letter of the image filenames
    var imgBase = imgScale[0].split('img/')[1].split('.jpg')[0].replace(/\d+/g, '');
    
    // split the number of the image filenames off from the rest of it
    var nScale = [];
    for (var i = 0; i < imgScale.length-1; i++) {
      var n = imgScale[i].split('img/')[1].split('.jpg')[0].split(imgBase)[1];
      nScale.push(n);
    };
    
    // calculate the element width, and slice it up into sections
    var vWidth = $(document).width();
    var nSlices = nScale.length;
    var slices = generateSlices(vWidth, nSlices);
  
    // setting up initial vertical line to start the mousemove functionality
    var vHeight = $(document).height()-8;
    var lineSlice = vWidth / 10;
    var vertLine = `<div style=""border-left:black;border-style:solid;margin-left:${lineSlice}px; height:${vHeight}px;width:0px;position:absolute;"" id=""vertLine""></div>`;
    var linePrompt = `<div id=""linePrompt""><div style=""font-size:50px;position:absolute;margin-left:${lineSlice*1.3}px;margin-top:${vHeight/2}px""></div><div style=""position:absolute;margin-left:${lineSlice*1.2}px;margin-top:${vHeight/2}px;z-index:5;"">Move mouse left of the line to begin</div></div>`;
    $("".jspsych-content-wrapper"").prepend(vertLine);
    $("".jspsych-content-wrapper"").prepend(linePrompt);
    
    // hide prompt until the trial is begun
    $('#jspsych-content > p').css(""visibility"", ""hidden"");
  
    // initialize the central image with the most neutral one (i.e. from
    // the middle of the scale) and set the image to be blurred
    var initialImage = imgScale[0];
    $('#jspsych-image-slider-response_noButton-stimulus').append(`<img src=""${initialImage}"" style=""filter:blur(4px);visibility:hidden;"" id=""changeable-image""/>`);
  
    // ADD VISUAL SCALE SHOWING MIN/MAX
    var scaleWidth = vWidth * 0.6;
    var scaleLeft = vWidth * 0.2;
    var scaleHtml = `
      <div id=""scale-container"" style=""position:absolute; bottom:120px; left:${scaleLeft}px; width:${scaleWidth}px; height:30px; background-color:rgba(220,220,220,0.7); border-radius:5px; display:none; z-index:10;"">
        <div style=""position:absolute; left:0px; width:2px; height:30px; background-color:black;""></div>
        <div style=""position:absolute; left:0px; top:32px; font-size:12px; color:black;"">Min (1)</div>
        <div style=""position:absolute; right:0px; width:2px; height:30px; background-color:black;""></div>
        <div style=""position:absolute; right:0px; top:32px; font-size:12px; color:black;"">Max (50)</div>
        <div id=""current-marker"" style=""position:absolute; left:0px; width:2px; height:30px; background-color:red; display:none;""></div>
      </div>
    `;
    $("".jspsych-content-wrapper"").append(scaleHtml);
  
    // workaround with a global variable
    window.__imageMouseOver = {
      lineSlice: lineSlice,
      slices: slices,
      nScale: nScale,
      imgBase: imgBase,
      startTime: startTime,
      trialData: trialData,
      sliceSelected: 0,
    };
    var __listenerBools = {};
  
    // define mousemove event listener that changes image
    function changeImg(event) {
      var mouseX = Math.floor(event.pageX);
      
      // Show the scale after interaction begins
      $(""#scale-container"").css(""display"", ""block"");
      
      // Update current marker position based on mouse position
      var scaleWidth = $(""#scale-container"").width();
      var relativePos = Math.max(0, Math.min(mouseX - scaleLeft, scaleWidth));
      var percentPos = (relativePos / scaleWidth) * 100;
      
      $(""#current-marker"").css({
        ""left"": `${relativePos}px`,
        ""display"": ""block""
      });
      
      for (var i = 0; i < __imageMouseOver.slices.length; i++) {
        // if mouse X position is within the bounds of the X axis slice,
        // change the image to one that is indexed to that slice
        if (mouseX >= __imageMouseOver.slices[i][0] && mouseX <= __imageMouseOver.slices[i][1]) {
          // capture which slice is selected
          __imageMouseOver.sliceSelected = i;
          // update img src to the picture that corresponds to that slice
          $('#changeable-image').attr('src', `img/${__imageMouseOver.imgBase}${__imageMouseOver.nScale[i]}.jpg`);
        }
      };
    };
    
    // define the click listener that ends trial
    function clickHandler(event) {
      if (__listenerBools['mousemove']) {
        // derive trial data
        var trialData = __imageMouseOver.trialData;
        var end_time = (new Date()).getTime();
        var rt = end_time - __imageMouseOver.startTime;
        trialData['rt'] = rt;
        trialData['stimulus_duration'] = rt;
        trialData['trial_duration'] = rt;
        trialData['imageSelected'] = `${__imageMouseOver.imgBase}${__imageMouseOver.nScale[__imageMouseOver.sliceSelected]}.jpg`
        trialData['indexSelected'] = __imageMouseOver.sliceSelected;
        // turn off listeners
        $(document).off('mousemove');
        $(document).off('click');
        // clean up variable namespaces
        delete window.__imageMouseOver
        delete __listenerBools;
        // clean up scale
        $(""#scale-container"").remove();
        // finish the trial with trial data
        jsPsych.finishTrial(trialData);
      };
    };
  
    function verticalLineInit(event) {
      var mouseX = Math.floor(event.pageX);
      if (mouseX <= __imageMouseOver.lineSlice) {
        $(""#vertLine"").remove();
        $(""#linePrompt"").remove();
        $(""#jspsych-image-slider-response_noButton-stimulus > img"").css({
          ""filter"":""blur(0px)"",
          ""visibility"": ""visible"",
        });
        $('#jspsych-content > p').css(""visibility"", ""visible"");
        __listenerBools['mousemove'] = true;
        // turn off THIS mouse move listener
        $(document).off(""mousemove"");
        // turn on the mouse move listener that changes the image
        $(document).mousemove(changeImg);
        // add mouse click listener
        $(document).on('click', clickHandler);
      };
    };
  
    // turn on the vertical line mouse move listener
    $(document).mousemove(verticalLineInit);
  }","[object Object]","0","","Continue","3958","3958","true","red3.jpg","2","avg","500","red","4","[1,4,3,13]","5.25","Three Giraffes standing next to each other.","1","","",""
"html-keyboard-response","10","68471","0.0-10.0","62728a4122289635e97d12f2","null","","","","<p style=""font-size: 48px;""> + </p>","null","fixation","","","","","","","","","","","","","","","","","","","","","","","","","","",""
"html-keyboard-response","11","69981","0.0-11.0","62728a4122289635e97d12f2","null","","","","<span class='grid'><div> </div> <div class='red' style='background-position:1900% 0%;margin-top:35px'></div> <div> </div> <div> </div> <div> </div> <div> </div> <div> </div> <div class='red' style='background-position:400% 0%;margin-top:24px'></div> <div class='red' style='background-position:600% 0%;margin-top:39px'></div> <div class='red' style='background-position:1500% 0%;margin-top:37px'></div> <div class='red' style='background-position:1700% 0%;margin-top:50px'></div> <div> </div> <div> </div> <div> </div> <div> </div> <div class='red' style='background-position:800% 0%;margin-top:41px'></div></span>","null","stimulus","{""index"":0,""type"":""practice"",""color"":""red""}","","","","","","","","","","","","","","","","","","","","","","","","","",""
"image-slider-response_noButton","12","72564","0.0-12.0","62728a4122289635e97d12f2","2582","","","","img/red1.jpg,img/red2.jpg,img/red3.jpg,img/red4.jpg,img/red5.jpg,img/red6.jpg,img/red7.jpg,img/red8.jpg,img/red9.jpg,img/red10.jpg,img/red11.jpg,img/red12.jpg,img/red13.jpg,img/red14.jpg,img/red15.jpg,img/red16.jpg,img/red17.jpg,img/red18.jpg,img/red19.jpg,img/red20.jpg,img/red21.jpg,img/red22.jpg,img/red23.jpg,img/red24.jpg,img/red25.jpg,img/red26.jpg,img/red27.jpg,img/red28.jpg,img/red29.jpg,img/red30.jpg,img/red31.jpg,img/red32.jpg,img/red33.jpg,img/red34.jpg,img/red35.jpg,img/red36.jpg,img/red37.jpg,img/red38.jpg,img/red39.jpg,img/red40.jpg,img/red41.jpg,img/red42.jpg,img/red43.jpg,img/red44.jpg,img/red45.jpg,img/red46.jpg,img/red47.jpg,img/red48.jpg,img/red49.jpg,img/red50.jpg","","response","{""index"":1,""type"":""practice"",""color"":""red""}","image-slider-response_noButton","<p>what was the average redness of the array?</p>","1","50","0","function morphedScaleRed() {
    // defining a few helper functions
    function nrange(size, startAt = 0) {
      return [...Array(size).keys()].map(i => i + startAt);
    };
  
    function fillArray(value, len) {
      var arr = [];
      for (var i = 0; i < len; i++) {
        arr.push(value);
      }
      return arr;
    };
  
    function generateSlices(vWidth, nSlices) {
      var step = vWidth*0.6/(nSlices-2);
      var stepArray = fillArray(step,nSlices-2)
      stepArray.unshift(0.2*vWidth)
      stepArray.push(0.2*vWidth)
  
      var bounds = [];
      
      for (var i = 0; i < nSlices; i++) {
        if (i==0) {
          bounds.push([(i*stepArray[i]), (i*stepArray[i])+stepArray[i]])
        } else if (i>0 && i!=nSlices-1) {
          bounds.push([(i*stepArray[i]+0.2*vWidth), (i*stepArray[i])+stepArray[i]+0.2*vWidth])
        } else {
          bounds.push([(vWidth-0.2*vWidth), vWidth])  
        }
      };
      return bounds;
    };
    
    // start trial timer
    var startTime = (new Date()).getTime();
    // get trial data
    var trialData = jsPsych.currentTrial();
  
    // remove the picture scales and the slider
    $('.jspsych-image-slider-response_noButton-container').css(""visibility"", ""hidden"");
    $('img').remove();
    var imgScale = getScaleRed();
    
    // derive the letter of the image filenames
    var imgBase = imgScale[0].split('img/')[1].split('.jpg')[0].replace(/\d+/g, '');
    
    // split the number of the image filenames off from the rest of it
    var nScale = [];
    for (var i = 0; i < imgScale.length-1; i++) {
      var n = imgScale[i].split('img/')[1].split('.jpg')[0].split(imgBase)[1];
      nScale.push(n);
    };
    
    // calculate the element width, and slice it up into sections
    var vWidth = $(document).width();
    var nSlices = nScale.length;
    var slices = generateSlices(vWidth, nSlices);
  
    // setting up initial vertical line to start the mousemove functionality
    var vHeight = $(document).height()-8;
    var lineSlice = vWidth / 10;
    var vertLine = `<div style=""border-left:black;border-style:solid;margin-left:${lineSlice}px; height:${vHeight}px;width:0px;position:absolute;"" id=""vertLine""></div>`;
    var linePrompt = `<div id=""linePrompt""><div style=""font-size:50px;position:absolute;margin-left:${lineSlice*1.3}px;margin-top:${vHeight/2}px""></div><div style=""position:absolute;margin-left:${lineSlice*1.2}px;margin-top:${vHeight/2}px;z-index:5;"">Move mouse left of the line to begin</div></div>`;
    $("".jspsych-content-wrapper"").prepend(vertLine);
    $("".jspsych-content-wrapper"").prepend(linePrompt);
    
    // hide prompt until the trial is begun
    $('#jspsych-content > p').css(""visibility"", ""hidden"");
  
    // initialize the central image with the most neutral one (i.e. from
    // the middle of the scale) and set the image to be blurred
    var initialImage = imgScale[0];
    $('#jspsych-image-slider-response_noButton-stimulus').append(`<img src=""${initialImage}"" style=""filter:blur(4px);visibility:hidden;"" id=""changeable-image""/>`);
  
    // ADD VISUAL SCALE SHOWING MIN/MAX
    var scaleWidth = vWidth * 0.6;
    var scaleLeft = vWidth * 0.2;
    var scaleHtml = `
      <div id=""scale-container"" style=""position:absolute; bottom:120px; left:${scaleLeft}px; width:${scaleWidth}px; height:30px; background-color:rgba(220,220,220,0.7); border-radius:5px; display:none; z-index:10;"">
        <div style=""position:absolute; left:0px; width:2px; height:30px; background-color:black;""></div>
        <div style=""position:absolute; left:0px; top:32px; font-size:12px; color:black;"">Min (1)</div>
        <div style=""position:absolute; right:0px; width:2px; height:30px; background-color:black;""></div>
        <div style=""position:absolute; right:0px; top:32px; font-size:12px; color:black;"">Max (50)</div>
        <div id=""current-marker"" style=""position:absolute; left:0px; width:2px; height:30px; background-color:red; display:none;""></div>
      </div>
    `;
    $("".jspsych-content-wrapper"").append(scaleHtml);
  
    // workaround with a global variable
    window.__imageMouseOver = {
      lineSlice: lineSlice,
      slices: slices,
      nScale: nScale,
      imgBase: imgBase,
      startTime: startTime,
      trialData: trialData,
      sliceSelected: 0,
    };
    var __listenerBools = {};
  
    // define mousemove event listener that changes image
    function changeImg(event) {
      var mouseX = Math.floor(event.pageX);
      
      // Show the scale after interaction begins
      $(""#scale-container"").css(""display"", ""block"");
      
      // Update current marker position based on mouse position
      var scaleWidth = $(""#scale-container"").width();
      var relativePos = Math.max(0, Math.min(mouseX - scaleLeft, scaleWidth));
      var percentPos = (relativePos / scaleWidth) * 100;
      
      $(""#current-marker"").css({
        ""left"": `${relativePos}px`,
        ""display"": ""block""
      });
      
      for (var i = 0; i < __imageMouseOver.slices.length; i++) {
        // if mouse X position is within the bounds of the X axis slice,
        // change the image to one that is indexed to that slice
        if (mouseX >= __imageMouseOver.slices[i][0] && mouseX <= __imageMouseOver.slices[i][1]) {
          // capture which slice is selected
          __imageMouseOver.sliceSelected = i;
          // update img src to the picture that corresponds to that slice
          $('#changeable-image').attr('src', `img/${__imageMouseOver.imgBase}${__imageMouseOver.nScale[i]}.jpg`);
        }
      };
    };
    
    // define the click listener that ends trial
    function clickHandler(event) {
      if (__listenerBools['mousemove']) {
        // derive trial data
        var trialData = __imageMouseOver.trialData;
        var end_time = (new Date()).getTime();
        var rt = end_time - __imageMouseOver.startTime;
        trialData['rt'] = rt;
        trialData['stimulus_duration'] = rt;
        trialData['trial_duration'] = rt;
        trialData['imageSelected'] = `${__imageMouseOver.imgBase}${__imageMouseOver.nScale[__imageMouseOver.sliceSelected]}.jpg`
        trialData['indexSelected'] = __imageMouseOver.sliceSelected;
        // turn off listeners
        $(document).off('mousemove');
        $(document).off('click');
        // clean up variable namespaces
        delete window.__imageMouseOver
        delete __listenerBools;
        // clean up scale
        $(""#scale-container"").remove();
        // finish the trial with trial data
        jsPsych.finishTrial(trialData);
      };
    };
  
    function verticalLineInit(event) {
      var mouseX = Math.floor(event.pageX);
      if (mouseX <= __imageMouseOver.lineSlice) {
        $(""#vertLine"").remove();
        $(""#linePrompt"").remove();
        $(""#jspsych-image-slider-response_noButton-stimulus > img"").css({
          ""filter"":""blur(0px)"",
          ""visibility"": ""visible"",
        });
        $('#jspsych-content > p').css(""visibility"", ""visible"");
        __listenerBools['mousemove'] = true;
        // turn off THIS mouse move listener
        $(document).off(""mousemove"");
        // turn on the mouse move listener that changes the image
        $(document).mousemove(changeImg);
        // add mouse click listener
        $(document).on('click', clickHandler);
      };
    };
  
    // turn on the vertical line mouse move listener
    $(document).mousemove(verticalLineInit);
  }","[object Object]","0","","Continue","2582","2582","true","red6.jpg","5","avg","500","red","6","[17,19,4,15,8,6]","11.5","Three Giraffes standing next to each other.","2","","",""
"html-keyboard-response","13","72968","0.0-13.0","62728a4122289635e97d12f2","null","","","","<p style=""font-size: 48px;""> + </p>","null","fixation","","","","","","","","","","","","","","","","","","","","","","","","","","",""
"html-keyboard-response","14","74477","0.0-14.0","62728a4122289635e97d12f2","null","","","","<span class='grid'><div> </div> <div> </div> <div> </div> <div> </div> <div> </div> <div class='red' style='background-position:3500% 0%;margin-top:48px'></div> <div class='red' style='background-position:3200% 0%;margin-top:41px'></div> <div class='red' style='background-position:4100% 0%;margin-top:32px'></div> <div> </div> <div class='red' style='background-position:4400% 0%;margin-top:28px'></div> <div> </div> <div class='red' style='background-position:3300% 0%;margin-top:44px'></div> <div class='red' style='background-position:3000% 0%;margin-top:29px'></div> <div class='red' style='background-position:4700% 0%;margin-top:50px'></div> <div> </div> <div class='red' style='background-position:3800% 0%;margin-top:25px'></div> <div> </div> <div class='red' style='background-position:3900% 0%;margin-top:43px'></div></span>","null","stimulus","{""index"":1,""type"":""practice"",""color"":""red""}","","","","","","","","","","","","","","","","","","","","","","","","","",""
"image-slider-response_noButton","15","76986","0.0-15.0","62728a4122289635e97d12f2","2509","","","","img/red1.jpg,img/red2.jpg,img/red3.jpg,img/red4.jpg,img/red5.jpg,img/red6.jpg,img/red7.jpg,img/red8.jpg,img/red9.jpg,img/red10.jpg,img/red11.jpg,img/red12.jpg,img/red13.jpg,img/red14.jpg,img/red15.jpg,img/red16.jpg,img/red17.jpg,img/red18.jpg,img/red19.jpg,img/red20.jpg,img/red21.jpg,img/red22.jpg,img/red23.jpg,img/red24.jpg,img/red25.jpg,img/red26.jpg,img/red27.jpg,img/red28.jpg,img/red29.jpg,img/red30.jpg,img/red31.jpg,img/red32.jpg,img/red33.jpg,img/red34.jpg,img/red35.jpg,img/red36.jpg,img/red37.jpg,img/red38.jpg,img/red39.jpg,img/red40.jpg,img/red41.jpg,img/red42.jpg,img/red43.jpg,img/red44.jpg,img/red45.jpg,img/red46.jpg,img/red47.jpg,img/red48.jpg,img/red49.jpg,img/red50.jpg","","response","{""index"":2,""type"":""practice"",""color"":""red""}","image-slider-response_noButton","<p>what was the average redness of the array?</p>","1","50","0","function morphedScaleRed() {
    // defining a few helper functions
    function nrange(size, startAt = 0) {
      return [...Array(size).keys()].map(i => i + startAt);
    };
  
    function fillArray(value, len) {
      var arr = [];
      for (var i = 0; i < len; i++) {
        arr.push(value);
      }
      return arr;
    };
  
    function generateSlices(vWidth, nSlices) {
      var step = vWidth*0.6/(nSlices-2);
      var stepArray = fillArray(step,nSlices-2)
      stepArray.unshift(0.2*vWidth)
      stepArray.push(0.2*vWidth)
  
      var bounds = [];
      
      for (var i = 0; i < nSlices; i++) {
        if (i==0) {
          bounds.push([(i*stepArray[i]), (i*stepArray[i])+stepArray[i]])
        } else if (i>0 && i!=nSlices-1) {
          bounds.push([(i*stepArray[i]+0.2*vWidth), (i*stepArray[i])+stepArray[i]+0.2*vWidth])
        } else {
          bounds.push([(vWidth-0.2*vWidth), vWidth])  
        }
      };
      return bounds;
    };
    
    // start trial timer
    var startTime = (new Date()).getTime();
    // get trial data
    var trialData = jsPsych.currentTrial();
  
    // remove the picture scales and the slider
    $('.jspsych-image-slider-response_noButton-container').css(""visibility"", ""hidden"");
    $('img').remove();
    var imgScale = getScaleRed();
    
    // derive the letter of the image filenames
    var imgBase = imgScale[0].split('img/')[1].split('.jpg')[0].replace(/\d+/g, '');
    
    // split the number of the image filenames off from the rest of it
    var nScale = [];
    for (var i = 0; i < imgScale.length-1; i++) {
      var n = imgScale[i].split('img/')[1].split('.jpg')[0].split(imgBase)[1];
      nScale.push(n);
    };
    
    // calculate the element width, and slice it up into sections
    var vWidth = $(document).width();
    var nSlices = nScale.length;
    var slices = generateSlices(vWidth, nSlices);
  
    // setting up initial vertical line to start the mousemove functionality
    var vHeight = $(document).height()-8;
    var lineSlice = vWidth / 10;
    var vertLine = `<div style=""border-left:black;border-style:solid;margin-left:${lineSlice}px; height:${vHeight}px;width:0px;position:absolute;"" id=""vertLine""></div>`;
    var linePrompt = `<div id=""linePrompt""><div style=""font-size:50px;position:absolute;margin-left:${lineSlice*1.3}px;margin-top:${vHeight/2}px""></div><div style=""position:absolute;margin-left:${lineSlice*1.2}px;margin-top:${vHeight/2}px;z-index:5;"">Move mouse left of the line to begin</div></div>`;
    $("".jspsych-content-wrapper"").prepend(vertLine);
    $("".jspsych-content-wrapper"").prepend(linePrompt);
    
    // hide prompt until the trial is begun
    $('#jspsych-content > p').css(""visibility"", ""hidden"");
  
    // initialize the central image with the most neutral one (i.e. from
    // the middle of the scale) and set the image to be blurred
    var initialImage = imgScale[0];
    $('#jspsych-image-slider-response_noButton-stimulus').append(`<img src=""${initialImage}"" style=""filter:blur(4px);visibility:hidden;"" id=""changeable-image""/>`);
  
    // ADD VISUAL SCALE SHOWING MIN/MAX
    var scaleWidth = vWidth * 0.6;
    var scaleLeft = vWidth * 0.2;
    var scaleHtml = `
      <div id=""scale-container"" style=""position:absolute; bottom:120px; left:${scaleLeft}px; width:${scaleWidth}px; height:30px; background-color:rgba(220,220,220,0.7); border-radius:5px; display:none; z-index:10;"">
        <div style=""position:absolute; left:0px; width:2px; height:30px; background-color:black;""></div>
        <div style=""position:absolute; left:0px; top:32px; font-size:12px; color:black;"">Min (1)</div>
        <div style=""position:absolute; right:0px; width:2px; height:30px; background-color:black;""></div>
        <div style=""position:absolute; right:0px; top:32px; font-size:12px; color:black;"">Max (50)</div>
        <div id=""current-marker"" style=""position:absolute; left:0px; width:2px; height:30px; background-color:red; display:none;""></div>
      </div>
    `;
    $("".jspsych-content-wrapper"").append(scaleHtml);
  
    // workaround with a global variable
    window.__imageMouseOver = {
      lineSlice: lineSlice,
      slices: slices,
      nScale: nScale,
      imgBase: imgBase,
      startTime: startTime,
      trialData: trialData,
      sliceSelected: 0,
    };
    var __listenerBools = {};
  
    // define mousemove event listener that changes image
    function changeImg(event) {
      var mouseX = Math.floor(event.pageX);
      
      // Show the scale after interaction begins
      $(""#scale-container"").css(""display"", ""block"");
      
      // Update current marker position based on mouse position
      var scaleWidth = $(""#scale-container"").width();
      var relativePos = Math.max(0, Math.min(mouseX - scaleLeft, scaleWidth));
      var percentPos = (relativePos / scaleWidth) * 100;
      
      $(""#current-marker"").css({
        ""left"": `${relativePos}px`,
        ""display"": ""block""
      });
      
      for (var i = 0; i < __imageMouseOver.slices.length; i++) {
        // if mouse X position is within the bounds of the X axis slice,
        // change the image to one that is indexed to that slice
        if (mouseX >= __imageMouseOver.slices[i][0] && mouseX <= __imageMouseOver.slices[i][1]) {
          // capture which slice is selected
          __imageMouseOver.sliceSelected = i;
          // update img src to the picture that corresponds to that slice
          $('#changeable-image').attr('src', `img/${__imageMouseOver.imgBase}${__imageMouseOver.nScale[i]}.jpg`);
        }
      };
    };
    
    // define the click listener that ends trial
    function clickHandler(event) {
      if (__listenerBools['mousemove']) {
        // derive trial data
        var trialData = __imageMouseOver.trialData;
        var end_time = (new Date()).getTime();
        var rt = end_time - __imageMouseOver.startTime;
        trialData['rt'] = rt;
        trialData['stimulus_duration'] = rt;
        trialData['trial_duration'] = rt;
        trialData['imageSelected'] = `${__imageMouseOver.imgBase}${__imageMouseOver.nScale[__imageMouseOver.sliceSelected]}.jpg`
        trialData['indexSelected'] = __imageMouseOver.sliceSelected;
        // turn off listeners
        $(document).off('mousemove');
        $(document).off('click');
        // clean up variable namespaces
        delete window.__imageMouseOver
        delete __listenerBools;
        // clean up scale
        $(""#scale-container"").remove();
        // finish the trial with trial data
        jsPsych.finishTrial(trialData);
      };
    };
  
    function verticalLineInit(event) {
      var mouseX = Math.floor(event.pageX);
      if (mouseX <= __imageMouseOver.lineSlice) {
        $(""#vertLine"").remove();
        $(""#linePrompt"").remove();
        $(""#jspsych-image-slider-response_noButton-stimulus > img"").css({
          ""filter"":""blur(0px)"",
          ""visibility"": ""visible"",
        });
        $('#jspsych-content > p').css(""visibility"", ""visible"");
        __listenerBools['mousemove'] = true;
        // turn off THIS mouse move listener
        $(document).off(""mousemove"");
        // turn on the mouse move listener that changes the image
        $(document).mousemove(changeImg);
        // add mouse click listener
        $(document).on('click', clickHandler);
      };
    };
  
    // turn on the vertical line mouse move listener
    $(document).mousemove(verticalLineInit);
  }","[object Object]","0","","Continue","2509","2509","true","red36.jpg","35","avg","400","red","9","[33,47,30,41,44,32,38,39,35]","37.666666666666664","Three Giraffes standing next to each other.","3","","",""
"html-keyboard-response","16","77401","0.0-16.0","62728a4122289635e97d12f2","null","","","","<p style=""font-size: 48px;""> + </p>","null","fixation","","","","","","","","","","","","","","","","","","","","","","","","","","",""
"html-keyboard-response","17","78910","0.0-17.0","62728a4122289635e97d12f2","null","","","","<span class='grid'><div> </div> <div class='red' style='background-position:1300% 0%;margin-top:26px'></div> <div> </div> <div class='red' style='background-position:1700% 0%;margin-top:24px'></div> <div> </div> <div class='red' style='background-position:600% 0%;margin-top:26px'></div> <div> </div> <div class='red' style='background-position:200% 0%;margin-top:43px'></div> <div> </div> <div class='red' style='background-position:800% 0%;margin-top:37px'></div> <div class='red' style='background-position:300% 0%;margin-top:29px'></div> <div> </div> <div> </div> <div> </div> <div class='red' style='background-position:2000% 0%;margin-top:39px'></div> <div class='red' style='background-position:1100% 0%;margin-top:29px'></div> <div class='red' style='background-position:1200% 0%;margin-top:31px'></div> <div class='red' style='background-position:700% 0%;margin-top:21px'></div></span>","null","stimulus","{""index"":2,""type"":""practice"",""color"":""red""}","","","","","","","","","","","","","","","","","","","","","","","","","",""
"image-slider-response_noButton","18","81146","0.0-18.0","62728a4122289635e97d12f2","2234","","","","img/red1.jpg,img/red2.jpg,img/red3.jpg,img/red4.jpg,img/red5.jpg,img/red6.jpg,img/red7.jpg,img/red8.jpg,img/red9.jpg,img/red10.jpg,img/red11.jpg,img/red12.jpg,img/red13.jpg,img/red14.jpg,img/red15.jpg,img/red16.jpg,img/red17.jpg,img/red18.jpg,img/red19.jpg,img/red20.jpg,img/red21.jpg,img/red22.jpg,img/red23.jpg,img/red24.jpg,img/red25.jpg,img/red26.jpg,img/red27.jpg,img/red28.jpg,img/red29.jpg,img/red30.jpg,img/red31.jpg,img/red32.jpg,img/red33.jpg,img/red34.jpg,img/red35.jpg,img/red36.jpg,img/red37.jpg,img/red38.jpg,img/red39.jpg,img/red40.jpg,img/red41.jpg,img/red42.jpg,img/red43.jpg,img/red44.jpg,img/red45.jpg,img/red46.jpg,img/red47.jpg,img/red48.jpg,img/red49.jpg,img/red50.jpg","","response","{""index"":3,""type"":""practice"",""color"":""red""}","image-slider-response_noButton","<p>what was the average redness of the array?</p>","1","50","0","function morphedScaleRed() {
    // defining a few helper functions
    function nrange(size, startAt = 0) {
      return [...Array(size).keys()].map(i => i + startAt);
    };
  
    function fillArray(value, len) {
      var arr = [];
      for (var i = 0; i < len; i++) {
        arr.push(value);
      }
      return arr;
    };
  
    function generateSlices(vWidth, nSlices) {
      var step = vWidth*0.6/(nSlices-2);
      var stepArray = fillArray(step,nSlices-2)
      stepArray.unshift(0.2*vWidth)
      stepArray.push(0.2*vWidth)
  
      var bounds = [];
      
      for (var i = 0; i < nSlices; i++) {
        if (i==0) {
          bounds.push([(i*stepArray[i]), (i*stepArray[i])+stepArray[i]])
        } else if (i>0 && i!=nSlices-1) {
          bounds.push([(i*stepArray[i]+0.2*vWidth), (i*stepArray[i])+stepArray[i]+0.2*vWidth])
        } else {
          bounds.push([(vWidth-0.2*vWidth), vWidth])  
        }
      };
      return bounds;
    };
    
    // start trial timer
    var startTime = (new Date()).getTime();
    // get trial data
    var trialData = jsPsych.currentTrial();
  
    // remove the picture scales and the slider
    $('.jspsych-image-slider-response_noButton-container').css(""visibility"", ""hidden"");
    $('img').remove();
    var imgScale = getScaleRed();
    
    // derive the letter of the image filenames
    var imgBase = imgScale[0].split('img/')[1].split('.jpg')[0].replace(/\d+/g, '');
    
    // split the number of the image filenames off from the rest of it
    var nScale = [];
    for (var i = 0; i < imgScale.length-1; i++) {
      var n = imgScale[i].split('img/')[1].split('.jpg')[0].split(imgBase)[1];
      nScale.push(n);
    };
    
    // calculate the element width, and slice it up into sections
    var vWidth = $(document).width();
    var nSlices = nScale.length;
    var slices = generateSlices(vWidth, nSlices);
  
    // setting up initial vertical line to start the mousemove functionality
    var vHeight = $(document).height()-8;
    var lineSlice = vWidth / 10;
    var vertLine = `<div style=""border-left:black;border-style:solid;margin-left:${lineSlice}px; height:${vHeight}px;width:0px;position:absolute;"" id=""vertLine""></div>`;
    var linePrompt = `<div id=""linePrompt""><div style=""font-size:50px;position:absolute;margin-left:${lineSlice*1.3}px;margin-top:${vHeight/2}px""></div><div style=""position:absolute;margin-left:${lineSlice*1.2}px;margin-top:${vHeight/2}px;z-index:5;"">Move mouse left of the line to begin</div></div>`;
    $("".jspsych-content-wrapper"").prepend(vertLine);
    $("".jspsych-content-wrapper"").prepend(linePrompt);
    
    // hide prompt until the trial is begun
    $('#jspsych-content > p').css(""visibility"", ""hidden"");
  
    // initialize the central image with the most neutral one (i.e. from
    // the middle of the scale) and set the image to be blurred
    var initialImage = imgScale[0];
    $('#jspsych-image-slider-response_noButton-stimulus').append(`<img src=""${initialImage}"" style=""filter:blur(4px);visibility:hidden;"" id=""changeable-image""/>`);
  
    // ADD VISUAL SCALE SHOWING MIN/MAX
    var scaleWidth = vWidth * 0.6;
    var scaleLeft = vWidth * 0.2;
    var scaleHtml = `
      <div id=""scale-container"" style=""position:absolute; bottom:120px; left:${scaleLeft}px; width:${scaleWidth}px; height:30px; background-color:rgba(220,220,220,0.7); border-radius:5px; display:none; z-index:10;"">
        <div style=""position:absolute; left:0px; width:2px; height:30px; background-color:black;""></div>
        <div style=""position:absolute; left:0px; top:32px; font-size:12px; color:black;"">Min (1)</div>
        <div style=""position:absolute; right:0px; width:2px; height:30px; background-color:black;""></div>
        <div style=""position:absolute; right:0px; top:32px; font-size:12px; color:black;"">Max (50)</div>
        <div id=""current-marker"" style=""position:absolute; left:0px; width:2px; height:30px; background-color:red; display:none;""></div>
      </div>
    `;
    $("".jspsych-content-wrapper"").append(scaleHtml);
  
    // workaround with a global variable
    window.__imageMouseOver = {
      lineSlice: lineSlice,
      slices: slices,
      nScale: nScale,
      imgBase: imgBase,
      startTime: startTime,
      trialData: trialData,
      sliceSelected: 0,
    };
    var __listenerBools = {};
  
    // define mousemove event listener that changes image
    function changeImg(event) {
      var mouseX = Math.floor(event.pageX);
      
      // Show the scale after interaction begins
      $(""#scale-container"").css(""display"", ""block"");
      
      // Update current marker position based on mouse position
      var scaleWidth = $(""#scale-container"").width();
      var relativePos = Math.max(0, Math.min(mouseX - scaleLeft, scaleWidth));
      var percentPos = (relativePos / scaleWidth) * 100;
      
      $(""#current-marker"").css({
        ""left"": `${relativePos}px`,
        ""display"": ""block""
      });
      
      for (var i = 0; i < __imageMouseOver.slices.length; i++) {
        // if mouse X position is within the bounds of the X axis slice,
        // change the image to one that is indexed to that slice
        if (mouseX >= __imageMouseOver.slices[i][0] && mouseX <= __imageMouseOver.slices[i][1]) {
          // capture which slice is selected
          __imageMouseOver.sliceSelected = i;
          // update img src to the picture that corresponds to that slice
          $('#changeable-image').attr('src', `img/${__imageMouseOver.imgBase}${__imageMouseOver.nScale[i]}.jpg`);
        }
      };
    };
    
    // define the click listener that ends trial
    function clickHandler(event) {
      if (__listenerBools['mousemove']) {
        // derive trial data
        var trialData = __imageMouseOver.trialData;
        var end_time = (new Date()).getTime();
        var rt = end_time - __imageMouseOver.startTime;
        trialData['rt'] = rt;
        trialData['stimulus_duration'] = rt;
        trialData['trial_duration'] = rt;
        trialData['imageSelected'] = `${__imageMouseOver.imgBase}${__imageMouseOver.nScale[__imageMouseOver.sliceSelected]}.jpg`
        trialData['indexSelected'] = __imageMouseOver.sliceSelected;
        // turn off listeners
        $(document).off('mousemove');
        $(document).off('click');
        // clean up variable namespaces
        delete window.__imageMouseOver
        delete __listenerBools;
        // clean up scale
        $(""#scale-container"").remove();
        // finish the trial with trial data
        jsPsych.finishTrial(trialData);
      };
    };
  
    function verticalLineInit(event) {
      var mouseX = Math.floor(event.pageX);
      if (mouseX <= __imageMouseOver.lineSlice) {
        $(""#vertLine"").remove();
        $(""#linePrompt"").remove();
        $(""#jspsych-image-slider-response_noButton-stimulus > img"").css({
          ""filter"":""blur(0px)"",
          ""visibility"": ""visible"",
        });
        $('#jspsych-content > p').css(""visibility"", ""visible"");
        __listenerBools['mousemove'] = true;
        // turn off THIS mouse move listener
        $(document).off(""mousemove"");
        // turn on the mouse move listener that changes the image
        $(document).mousemove(changeImg);
        // add mouse click listener
        $(document).on('click', clickHandler);
      };
    };
  
    // turn on the vertical line mouse move listener
    $(document).mousemove(verticalLineInit);
  }","[object Object]","0","","Continue","2234","2234","true","red7.jpg","6","avg","400","red","10","[13,2,6,3,11,7,12,8,20,17]","9.9","Three Giraffes standing next to each other.","4","","",""
"html-keyboard-response","19","81757","0.0-19.0","62728a4122289635e97d12f2","null","","","","<p style=""font-size: 48px;""> + </p>","null","fixation","","","","","","","","","","","","","","","","","","","","","","","","","","",""
"html-keyboard-response","20","83262","0.0-20.0","62728a4122289635e97d12f2","null","","","","<span class='grid'><div> </div> <div class='red' style='background-position:600% 0%;margin-top:34px'></div> <div> </div> <div> </div> <div> </div> <div> </div> <div> </div> <div class='red' style='background-position:1600% 0%;margin-top:49px'></div> <div class='red' style='background-position:1500% 0%;margin-top:43px'></div> <div> </div> <div> </div> <div class='red' style='background-position:100% 0%;margin-top:23px'></div> <div> </div> <div> </div> <div> </div> <div class='red' style='background-position:400% 0%;margin-top:35px'></div></span>","null","stimulus","{""index"":3,""type"":""practice"",""color"":""red""}","","","","","","","","","","","","","","","","","","","","","","","","","",""
"image-slider-response_noButton","21","85374","0.0-21.0","62728a4122289635e97d12f2","2110","","","","img/red1.jpg,img/red2.jpg,img/red3.jpg,img/red4.jpg,img/red5.jpg,img/red6.jpg,img/red7.jpg,img/red8.jpg,img/red9.jpg,img/red10.jpg,img/red11.jpg,img/red12.jpg,img/red13.jpg,img/red14.jpg,img/red15.jpg,img/red16.jpg,img/red17.jpg,img/red18.jpg,img/red19.jpg,img/red20.jpg,img/red21.jpg,img/red22.jpg,img/red23.jpg,img/red24.jpg,img/red25.jpg,img/red26.jpg,img/red27.jpg,img/red28.jpg,img/red29.jpg,img/red30.jpg,img/red31.jpg,img/red32.jpg,img/red33.jpg,img/red34.jpg,img/red35.jpg,img/red36.jpg,img/red37.jpg,img/red38.jpg,img/red39.jpg,img/red40.jpg,img/red41.jpg,img/red42.jpg,img/red43.jpg,img/red44.jpg,img/red45.jpg,img/red46.jpg,img/red47.jpg,img/red48.jpg,img/red49.jpg,img/red50.jpg","","response","{""index"":4,""type"":""practice"",""color"":""red""}","image-slider-response_noButton","<p>what was the average redness of the array?</p>","1","50","0","function morphedScaleRed() {
    // defining a few helper functions
    function nrange(size, startAt = 0) {
      return [...Array(size).keys()].map(i => i + startAt);
    };
  
    function fillArray(value, len) {
      var arr = [];
      for (var i = 0; i < len; i++) {
        arr.push(value);
      }
      return arr;
    };
  
    function generateSlices(vWidth, nSlices) {
      var step = vWidth*0.6/(nSlices-2);
      var stepArray = fillArray(step,nSlices-2)
      stepArray.unshift(0.2*vWidth)
      stepArray.push(0.2*vWidth)
  
      var bounds = [];
      
      for (var i = 0; i < nSlices; i++) {
        if (i==0) {
          bounds.push([(i*stepArray[i]), (i*stepArray[i])+stepArray[i]])
        } else if (i>0 && i!=nSlices-1) {
          bounds.push([(i*stepArray[i]+0.2*vWidth), (i*stepArray[i])+stepArray[i]+0.2*vWidth])
        } else {
          bounds.push([(vWidth-0.2*vWidth), vWidth])  
        }
      };
      return bounds;
    };
    
    // start trial timer
    var startTime = (new Date()).getTime();
    // get trial data
    var trialData = jsPsych.currentTrial();
  
    // remove the picture scales and the slider
    $('.jspsych-image-slider-response_noButton-container').css(""visibility"", ""hidden"");
    $('img').remove();
    var imgScale = getScaleRed();
    
    // derive the letter of the image filenames
    var imgBase = imgScale[0].split('img/')[1].split('.jpg')[0].replace(/\d+/g, '');
    
    // split the number of the image filenames off from the rest of it
    var nScale = [];
    for (var i = 0; i < imgScale.length-1; i++) {
      var n = imgScale[i].split('img/')[1].split('.jpg')[0].split(imgBase)[1];
      nScale.push(n);
    };
    
    // calculate the element width, and slice it up into sections
    var vWidth = $(document).width();
    var nSlices = nScale.length;
    var slices = generateSlices(vWidth, nSlices);
  
    // setting up initial vertical line to start the mousemove functionality
    var vHeight = $(document).height()-8;
    var lineSlice = vWidth / 10;
    var vertLine = `<div style=""border-left:black;border-style:solid;margin-left:${lineSlice}px; height:${vHeight}px;width:0px;position:absolute;"" id=""vertLine""></div>`;
    var linePrompt = `<div id=""linePrompt""><div style=""font-size:50px;position:absolute;margin-left:${lineSlice*1.3}px;margin-top:${vHeight/2}px""></div><div style=""position:absolute;margin-left:${lineSlice*1.2}px;margin-top:${vHeight/2}px;z-index:5;"">Move mouse left of the line to begin</div></div>`;
    $("".jspsych-content-wrapper"").prepend(vertLine);
    $("".jspsych-content-wrapper"").prepend(linePrompt);
    
    // hide prompt until the trial is begun
    $('#jspsych-content > p').css(""visibility"", ""hidden"");
  
    // initialize the central image with the most neutral one (i.e. from
    // the middle of the scale) and set the image to be blurred
    var initialImage = imgScale[0];
    $('#jspsych-image-slider-response_noButton-stimulus').append(`<img src=""${initialImage}"" style=""filter:blur(4px);visibility:hidden;"" id=""changeable-image""/>`);
  
    // ADD VISUAL SCALE SHOWING MIN/MAX
    var scaleWidth = vWidth * 0.6;
    var scaleLeft = vWidth * 0.2;
    var scaleHtml = `
      <div id=""scale-container"" style=""position:absolute; bottom:120px; left:${scaleLeft}px; width:${scaleWidth}px; height:30px; background-color:rgba(220,220,220,0.7); border-radius:5px; display:none; z-index:10;"">
        <div style=""position:absolute; left:0px; width:2px; height:30px; background-color:black;""></div>
        <div style=""position:absolute; left:0px; top:32px; font-size:12px; color:black;"">Min (1)</div>
        <div style=""position:absolute; right:0px; width:2px; height:30px; background-color:black;""></div>
        <div style=""position:absolute; right:0px; top:32px; font-size:12px; color:black;"">Max (50)</div>
        <div id=""current-marker"" style=""position:absolute; left:0px; width:2px; height:30px; background-color:red; display:none;""></div>
      </div>
    `;
    $("".jspsych-content-wrapper"").append(scaleHtml);
  
    // workaround with a global variable
    window.__imageMouseOver = {
      lineSlice: lineSlice,
      slices: slices,
      nScale: nScale,
      imgBase: imgBase,
      startTime: startTime,
      trialData: trialData,
      sliceSelected: 0,
    };
    var __listenerBools = {};
  
    // define mousemove event listener that changes image
    function changeImg(event) {
      var mouseX = Math.floor(event.pageX);
      
      // Show the scale after interaction begins
      $(""#scale-container"").css(""display"", ""block"");
      
      // Update current marker position based on mouse position
      var scaleWidth = $(""#scale-container"").width();
      var relativePos = Math.max(0, Math.min(mouseX - scaleLeft, scaleWidth));
      var percentPos = (relativePos / scaleWidth) * 100;
      
      $(""#current-marker"").css({
        ""left"": `${relativePos}px`,
        ""display"": ""block""
      });
      
      for (var i = 0; i < __imageMouseOver.slices.length; i++) {
        // if mouse X position is within the bounds of the X axis slice,
        // change the image to one that is indexed to that slice
        if (mouseX >= __imageMouseOver.slices[i][0] && mouseX <= __imageMouseOver.slices[i][1]) {
          // capture which slice is selected
          __imageMouseOver.sliceSelected = i;
          // update img src to the picture that corresponds to that slice
          $('#changeable-image').attr('src', `img/${__imageMouseOver.imgBase}${__imageMouseOver.nScale[i]}.jpg`);
        }
      };
    };
    
    // define the click listener that ends trial
    function clickHandler(event) {
      if (__listenerBools['mousemove']) {
        // derive trial data
        var trialData = __imageMouseOver.trialData;
        var end_time = (new Date()).getTime();
        var rt = end_time - __imageMouseOver.startTime;
        trialData['rt'] = rt;
        trialData['stimulus_duration'] = rt;
        trialData['trial_duration'] = rt;
        trialData['imageSelected'] = `${__imageMouseOver.imgBase}${__imageMouseOver.nScale[__imageMouseOver.sliceSelected]}.jpg`
        trialData['indexSelected'] = __imageMouseOver.sliceSelected;
        // turn off listeners
        $(document).off('mousemove');
        $(document).off('click');
        // clean up variable namespaces
        delete window.__imageMouseOver
        delete __listenerBools;
        // clean up scale
        $(""#scale-container"").remove();
        // finish the trial with trial data
        jsPsych.finishTrial(trialData);
      };
    };
  
    function verticalLineInit(event) {
      var mouseX = Math.floor(event.pageX);
      if (mouseX <= __imageMouseOver.lineSlice) {
        $(""#vertLine"").remove();
        $(""#linePrompt"").remove();
        $(""#jspsych-image-slider-response_noButton-stimulus > img"").css({
          ""filter"":""blur(0px)"",
          ""visibility"": ""visible"",
        });
        $('#jspsych-content > p').css(""visibility"", ""visible"");
        __listenerBools['mousemove'] = true;
        // turn off THIS mouse move listener
        $(document).off(""mousemove"");
        // turn on the mouse move listener that changes the image
        $(document).mousemove(changeImg);
        // add mouse click listener
        $(document).on('click', clickHandler);
      };
    };
  
    // turn on the vertical line mouse move listener
    $(document).mousemove(verticalLineInit);
  }","[object Object]","0","","Continue","2110","2110","true","red7.jpg","6","avg","600","red","5","[4,6,1,16,15]","8.4","Three Giraffes standing next to each other.","5","","",""
"html-keyboard-response","22","85988","0.0-22.0","62728a4122289635e97d12f2","null","","","","<p style=""font-size: 48px;""> + </p>","null","fixation","","","","","","","","","","","","","","","","","","","","","","","","","","",""
"html-keyboard-response","23","87497","0.0-23.0","62728a4122289635e97d12f2","null","","","","<span class='grid'><div> </div> <div> </div> <div> </div> <div> </div> <div> </div> <div> </div> <div> </div> <div> </div> <div> </div> <div> </div> <div class='red' style='background-position:3400% 0%;margin-top:21px'></div> <div class='red' style='background-position:3600% 0%;margin-top:36px'></div> <div> </div> <div class='red' style='background-position:4300% 0%;margin-top:36px'></div> <div> </div></span>","null","stimulus","{""index"":4,""type"":""practice"",""color"":""red""}","","","","","","","","","","","","","","","","","","","","","","","","","",""
"image-slider-response_noButton","24","90304","0.0-24.0","62728a4122289635e97d12f2","2806","","","","img/red1.jpg,img/red2.jpg,img/red3.jpg,img/red4.jpg,img/red5.jpg,img/red6.jpg,img/red7.jpg,img/red8.jpg,img/red9.jpg,img/red10.jpg,img/red11.jpg,img/red12.jpg,img/red13.jpg,img/red14.jpg,img/red15.jpg,img/red16.jpg,img/red17.jpg,img/red18.jpg,img/red19.jpg,img/red20.jpg,img/red21.jpg,img/red22.jpg,img/red23.jpg,img/red24.jpg,img/red25.jpg,img/red26.jpg,img/red27.jpg,img/red28.jpg,img/red29.jpg,img/red30.jpg,img/red31.jpg,img/red32.jpg,img/red33.jpg,img/red34.jpg,img/red35.jpg,img/red36.jpg,img/red37.jpg,img/red38.jpg,img/red39.jpg,img/red40.jpg,img/red41.jpg,img/red42.jpg,img/red43.jpg,img/red44.jpg,img/red45.jpg,img/red46.jpg,img/red47.jpg,img/red48.jpg,img/red49.jpg,img/red50.jpg","","response","{""index"":5,""type"":""practice"",""color"":""red""}","image-slider-response_noButton","<p>what was the average redness of the array?</p>","1","50","0","function morphedScaleRed() {
    // defining a few helper functions
    function nrange(size, startAt = 0) {
      return [...Array(size).keys()].map(i => i + startAt);
    };
  
    function fillArray(value, len) {
      var arr = [];
      for (var i = 0; i < len; i++) {
        arr.push(value);
      }
      return arr;
    };
  
    function generateSlices(vWidth, nSlices) {
      var step = vWidth*0.6/(nSlices-2);
      var stepArray = fillArray(step,nSlices-2)
      stepArray.unshift(0.2*vWidth)
      stepArray.push(0.2*vWidth)
  
      var bounds = [];
      
      for (var i = 0; i < nSlices; i++) {
        if (i==0) {
          bounds.push([(i*stepArray[i]), (i*stepArray[i])+stepArray[i]])
        } else if (i>0 && i!=nSlices-1) {
          bounds.push([(i*stepArray[i]+0.2*vWidth), (i*stepArray[i])+stepArray[i]+0.2*vWidth])
        } else {
          bounds.push([(vWidth-0.2*vWidth), vWidth])  
        }
      };
      return bounds;
    };
    
    // start trial timer
    var startTime = (new Date()).getTime();
    // get trial data
    var trialData = jsPsych.currentTrial();
  
    // remove the picture scales and the slider
    $('.jspsych-image-slider-response_noButton-container').css(""visibility"", ""hidden"");
    $('img').remove();
    var imgScale = getScaleRed();
    
    // derive the letter of the image filenames
    var imgBase = imgScale[0].split('img/')[1].split('.jpg')[0].replace(/\d+/g, '');
    
    // split the number of the image filenames off from the rest of it
    var nScale = [];
    for (var i = 0; i < imgScale.length-1; i++) {
      var n = imgScale[i].split('img/')[1].split('.jpg')[0].split(imgBase)[1];
      nScale.push(n);
    };
    
    // calculate the element width, and slice it up into sections
    var vWidth = $(document).width();
    var nSlices = nScale.length;
    var slices = generateSlices(vWidth, nSlices);
  
    // setting up initial vertical line to start the mousemove functionality
    var vHeight = $(document).height()-8;
    var lineSlice = vWidth / 10;
    var vertLine = `<div style=""border-left:black;border-style:solid;margin-left:${lineSlice}px; height:${vHeight}px;width:0px;position:absolute;"" id=""vertLine""></div>`;
    var linePrompt = `<div id=""linePrompt""><div style=""font-size:50px;position:absolute;margin-left:${lineSlice*1.3}px;margin-top:${vHeight/2}px""></div><div style=""position:absolute;margin-left:${lineSlice*1.2}px;margin-top:${vHeight/2}px;z-index:5;"">Move mouse left of the line to begin</div></div>`;
    $("".jspsych-content-wrapper"").prepend(vertLine);
    $("".jspsych-content-wrapper"").prepend(linePrompt);
    
    // hide prompt until the trial is begun
    $('#jspsych-content > p').css(""visibility"", ""hidden"");
  
    // initialize the central image with the most neutral one (i.e. from
    // the middle of the scale) and set the image to be blurred
    var initialImage = imgScale[0];
    $('#jspsych-image-slider-response_noButton-stimulus').append(`<img src=""${initialImage}"" style=""filter:blur(4px);visibility:hidden;"" id=""changeable-image""/>`);
  
    // ADD VISUAL SCALE SHOWING MIN/MAX
    var scaleWidth = vWidth * 0.6;
    var scaleLeft = vWidth * 0.2;
    var scaleHtml = `
      <div id=""scale-container"" style=""position:absolute; bottom:120px; left:${scaleLeft}px; width:${scaleWidth}px; height:30px; background-color:rgba(220,220,220,0.7); border-radius:5px; display:none; z-index:10;"">
        <div style=""position:absolute; left:0px; width:2px; height:30px; background-color:black;""></div>
        <div style=""position:absolute; left:0px; top:32px; font-size:12px; color:black;"">Min (1)</div>
        <div style=""position:absolute; right:0px; width:2px; height:30px; background-color:black;""></div>
        <div style=""position:absolute; right:0px; top:32px; font-size:12px; color:black;"">Max (50)</div>
        <div id=""current-marker"" style=""position:absolute; left:0px; width:2px; height:30px; background-color:red; display:none;""></div>
      </div>
    `;
    $("".jspsych-content-wrapper"").append(scaleHtml);
  
    // workaround with a global variable
    window.__imageMouseOver = {
      lineSlice: lineSlice,
      slices: slices,
      nScale: nScale,
      imgBase: imgBase,
      startTime: startTime,
      trialData: trialData,
      sliceSelected: 0,
    };
    var __listenerBools = {};
  
    // define mousemove event listener that changes image
    function changeImg(event) {
      var mouseX = Math.floor(event.pageX);
      
      // Show the scale after interaction begins
      $(""#scale-container"").css(""display"", ""block"");
      
      // Update current marker position based on mouse position
      var scaleWidth = $(""#scale-container"").width();
      var relativePos = Math.max(0, Math.min(mouseX - scaleLeft, scaleWidth));
      var percentPos = (relativePos / scaleWidth) * 100;
      
      $(""#current-marker"").css({
        ""left"": `${relativePos}px`,
        ""display"": ""block""
      });
      
      for (var i = 0; i < __imageMouseOver.slices.length; i++) {
        // if mouse X position is within the bounds of the X axis slice,
        // change the image to one that is indexed to that slice
        if (mouseX >= __imageMouseOver.slices[i][0] && mouseX <= __imageMouseOver.slices[i][1]) {
          // capture which slice is selected
          __imageMouseOver.sliceSelected = i;
          // update img src to the picture that corresponds to that slice
          $('#changeable-image').attr('src', `img/${__imageMouseOver.imgBase}${__imageMouseOver.nScale[i]}.jpg`);
        }
      };
    };
    
    // define the click listener that ends trial
    function clickHandler(event) {
      if (__listenerBools['mousemove']) {
        // derive trial data
        var trialData = __imageMouseOver.trialData;
        var end_time = (new Date()).getTime();
        var rt = end_time - __imageMouseOver.startTime;
        trialData['rt'] = rt;
        trialData['stimulus_duration'] = rt;
        trialData['trial_duration'] = rt;
        trialData['imageSelected'] = `${__imageMouseOver.imgBase}${__imageMouseOver.nScale[__imageMouseOver.sliceSelected]}.jpg`
        trialData['indexSelected'] = __imageMouseOver.sliceSelected;
        // turn off listeners
        $(document).off('mousemove');
        $(document).off('click');
        // clean up variable namespaces
        delete window.__imageMouseOver
        delete __listenerBools;
        // clean up scale
        $(""#scale-container"").remove();
        // finish the trial with trial data
        jsPsych.finishTrial(trialData);
      };
    };
  
    function verticalLineInit(event) {
      var mouseX = Math.floor(event.pageX);
      if (mouseX <= __imageMouseOver.lineSlice) {
        $(""#vertLine"").remove();
        $(""#linePrompt"").remove();
        $(""#jspsych-image-slider-response_noButton-stimulus > img"").css({
          ""filter"":""blur(0px)"",
          ""visibility"": ""visible"",
        });
        $('#jspsych-content > p').css(""visibility"", ""visible"");
        __listenerBools['mousemove'] = true;
        // turn off THIS mouse move listener
        $(document).off(""mousemove"");
        // turn on the mouse move listener that changes the image
        $(document).mousemove(changeImg);
        // add mouse click listener
        $(document).on('click', clickHandler);
      };
    };
  
    // turn on the vertical line mouse move listener
    $(document).mousemove(verticalLineInit);
  }","[object Object]","0","","Continue","2806","2806","true","red34.jpg","33","avg","600","red","3","[43,34,36]","37.666666666666664","Three Giraffes standing next to each other.","6","","",""
"html-keyboard-response","25","90810","0.0-25.0","62728a4122289635e97d12f2","null","","","","<p style=""font-size: 48px;""> + </p>","null","fixation","","","","","","","","","","","","","","","","","","","","","","","","","","",""
"html-keyboard-response","26","92318","0.0-26.0","62728a4122289635e97d12f2","null","","","","<span class='grid'><div> </div> <div> </div> <div class='red' style='background-position:4000% 0%;margin-top:22px'></div> <div> </div> <div class='red' style='background-position:3400% 0%;margin-top:29px'></div> <div> </div> <div> </div> <div> </div> <div> </div> <div> </div> <div class='red' style='background-position:3100% 0%;margin-top:27px'></div> <div> </div> <div> </div> <div> </div> <div class='red' style='background-position:2900% 0%;margin-top:41px'></div></span>","null","stimulus","{""index"":5,""type"":""practice"",""color"":""red""}","","","","","","","","","","","","","","","","","","","","","","","","","",""
"image-slider-response_noButton","27","93862","0.0-27.0","62728a4122289635e97d12f2","1542","","","","img/red1.jpg,img/red2.jpg,img/red3.jpg,img/red4.jpg,img/red5.jpg,img/red6.jpg,img/red7.jpg,img/red8.jpg,img/red9.jpg,img/red10.jpg,img/red11.jpg,img/red12.jpg,img/red13.jpg,img/red14.jpg,img/red15.jpg,img/red16.jpg,img/red17.jpg,img/red18.jpg,img/red19.jpg,img/red20.jpg,img/red21.jpg,img/red22.jpg,img/red23.jpg,img/red24.jpg,img/red25.jpg,img/red26.jpg,img/red27.jpg,img/red28.jpg,img/red29.jpg,img/red30.jpg,img/red31.jpg,img/red32.jpg,img/red33.jpg,img/red34.jpg,img/red35.jpg,img/red36.jpg,img/red37.jpg,img/red38.jpg,img/red39.jpg,img/red40.jpg,img/red41.jpg,img/red42.jpg,img/red43.jpg,img/red44.jpg,img/red45.jpg,img/red46.jpg,img/red47.jpg,img/red48.jpg,img/red49.jpg,img/red50.jpg","","response","{""index"":6,""type"":""practice"",""color"":""red""}","image-slider-response_noButton","<p>what was the average redness of the array?</p>","1","50","0","function morphedScaleRed() {
    // defining a few helper functions
    function nrange(size, startAt = 0) {
      return [...Array(size).keys()].map(i => i + startAt);
    };
  
    function fillArray(value, len) {
      var arr = [];
      for (var i = 0; i < len; i++) {
        arr.push(value);
      }
      return arr;
    };
  
    function generateSlices(vWidth, nSlices) {
      var step = vWidth*0.6/(nSlices-2);
      var stepArray = fillArray(step,nSlices-2)
      stepArray.unshift(0.2*vWidth)
      stepArray.push(0.2*vWidth)
  
      var bounds = [];
      
      for (var i = 0; i < nSlices; i++) {
        if (i==0) {
          bounds.push([(i*stepArray[i]), (i*stepArray[i])+stepArray[i]])
        } else if (i>0 && i!=nSlices-1) {
          bounds.push([(i*stepArray[i]+0.2*vWidth), (i*stepArray[i])+stepArray[i]+0.2*vWidth])
        } else {
          bounds.push([(vWidth-0.2*vWidth), vWidth])  
        }
      };
      return bounds;
    };
    
    // start trial timer
    var startTime = (new Date()).getTime();
    // get trial data
    var trialData = jsPsych.currentTrial();
  
    // remove the picture scales and the slider
    $('.jspsych-image-slider-response_noButton-container').css(""visibility"", ""hidden"");
    $('img').remove();
    var imgScale = getScaleRed();
    
    // derive the letter of the image filenames
    var imgBase = imgScale[0].split('img/')[1].split('.jpg')[0].replace(/\d+/g, '');
    
    // split the number of the image filenames off from the rest of it
    var nScale = [];
    for (var i = 0; i < imgScale.length-1; i++) {
      var n = imgScale[i].split('img/')[1].split('.jpg')[0].split(imgBase)[1];
      nScale.push(n);
    };
    
    // calculate the element width, and slice it up into sections
    var vWidth = $(document).width();
    var nSlices = nScale.length;
    var slices = generateSlices(vWidth, nSlices);
  
    // setting up initial vertical line to start the mousemove functionality
    var vHeight = $(document).height()-8;
    var lineSlice = vWidth / 10;
    var vertLine = `<div style=""border-left:black;border-style:solid;margin-left:${lineSlice}px; height:${vHeight}px;width:0px;position:absolute;"" id=""vertLine""></div>`;
    var linePrompt = `<div id=""linePrompt""><div style=""font-size:50px;position:absolute;margin-left:${lineSlice*1.3}px;margin-top:${vHeight/2}px""></div><div style=""position:absolute;margin-left:${lineSlice*1.2}px;margin-top:${vHeight/2}px;z-index:5;"">Move mouse left of the line to begin</div></div>`;
    $("".jspsych-content-wrapper"").prepend(vertLine);
    $("".jspsych-content-wrapper"").prepend(linePrompt);
    
    // hide prompt until the trial is begun
    $('#jspsych-content > p').css(""visibility"", ""hidden"");
  
    // initialize the central image with the most neutral one (i.e. from
    // the middle of the scale) and set the image to be blurred
    var initialImage = imgScale[0];
    $('#jspsych-image-slider-response_noButton-stimulus').append(`<img src=""${initialImage}"" style=""filter:blur(4px);visibility:hidden;"" id=""changeable-image""/>`);
  
    // ADD VISUAL SCALE SHOWING MIN/MAX
    var scaleWidth = vWidth * 0.6;
    var scaleLeft = vWidth * 0.2;
    var scaleHtml = `
      <div id=""scale-container"" style=""position:absolute; bottom:120px; left:${scaleLeft}px; width:${scaleWidth}px; height:30px; background-color:rgba(220,220,220,0.7); border-radius:5px; display:none; z-index:10;"">
        <div style=""position:absolute; left:0px; width:2px; height:30px; background-color:black;""></div>
        <div style=""position:absolute; left:0px; top:32px; font-size:12px; color:black;"">Min (1)</div>
        <div style=""position:absolute; right:0px; width:2px; height:30px; background-color:black;""></div>
        <div style=""position:absolute; right:0px; top:32px; font-size:12px; color:black;"">Max (50)</div>
        <div id=""current-marker"" style=""position:absolute; left:0px; width:2px; height:30px; background-color:red; display:none;""></div>
      </div>
    `;
    $("".jspsych-content-wrapper"").append(scaleHtml);
  
    // workaround with a global variable
    window.__imageMouseOver = {
      lineSlice: lineSlice,
      slices: slices,
      nScale: nScale,
      imgBase: imgBase,
      startTime: startTime,
      trialData: trialData,
      sliceSelected: 0,
    };
    var __listenerBools = {};
  
    // define mousemove event listener that changes image
    function changeImg(event) {
      var mouseX = Math.floor(event.pageX);
      
      // Show the scale after interaction begins
      $(""#scale-container"").css(""display"", ""block"");
      
      // Update current marker position based on mouse position
      var scaleWidth = $(""#scale-container"").width();
      var relativePos = Math.max(0, Math.min(mouseX - scaleLeft, scaleWidth));
      var percentPos = (relativePos / scaleWidth) * 100;
      
      $(""#current-marker"").css({
        ""left"": `${relativePos}px`,
        ""display"": ""block""
      });
      
      for (var i = 0; i < __imageMouseOver.slices.length; i++) {
        // if mouse X position is within the bounds of the X axis slice,
        // change the image to one that is indexed to that slice
        if (mouseX >= __imageMouseOver.slices[i][0] && mouseX <= __imageMouseOver.slices[i][1]) {
          // capture which slice is selected
          __imageMouseOver.sliceSelected = i;
          // update img src to the picture that corresponds to that slice
          $('#changeable-image').attr('src', `img/${__imageMouseOver.imgBase}${__imageMouseOver.nScale[i]}.jpg`);
        }
      };
    };
    
    // define the click listener that ends trial
    function clickHandler(event) {
      if (__listenerBools['mousemove']) {
        // derive trial data
        var trialData = __imageMouseOver.trialData;
        var end_time = (new Date()).getTime();
        var rt = end_time - __imageMouseOver.startTime;
        trialData['rt'] = rt;
        trialData['stimulus_duration'] = rt;
        trialData['trial_duration'] = rt;
        trialData['imageSelected'] = `${__imageMouseOver.imgBase}${__imageMouseOver.nScale[__imageMouseOver.sliceSelected]}.jpg`
        trialData['indexSelected'] = __imageMouseOver.sliceSelected;
        // turn off listeners
        $(document).off('mousemove');
        $(document).off('click');
        // clean up variable namespaces
        delete window.__imageMouseOver
        delete __listenerBools;
        // clean up scale
        $(""#scale-container"").remove();
        // finish the trial with trial data
        jsPsych.finishTrial(trialData);
      };
    };
  
    function verticalLineInit(event) {
      var mouseX = Math.floor(event.pageX);
      if (mouseX <= __imageMouseOver.lineSlice) {
        $(""#vertLine"").remove();
        $(""#linePrompt"").remove();
        $(""#jspsych-image-slider-response_noButton-stimulus > img"").css({
          ""filter"":""blur(0px)"",
          ""visibility"": ""visible"",
        });
        $('#jspsych-content > p').css(""visibility"", ""visible"");
        __listenerBools['mousemove'] = true;
        // turn off THIS mouse move listener
        $(document).off(""mousemove"");
        // turn on the mouse move listener that changes the image
        $(document).mousemove(changeImg);
        // add mouse click listener
        $(document).on('click', clickHandler);
      };
    };
  
    // turn on the vertical line mouse move listener
    $(document).mousemove(verticalLineInit);
  }","[object Object]","0","","Continue","1542","1542","true","red33.jpg","32","avg","500","red","4","[29,34,31,40]","33.5","Three Giraffes standing next to each other.","7","","",""
"html-keyboard-response","28","94464","0.0-28.0","62728a4122289635e97d12f2","null","","","","<p style=""font-size: 48px;""> + </p>","null","fixation","","","","","","","","","","","","","","","","","","","","","","","","","","",""
"html-keyboard-response","29","95965","0.0-29.0","62728a4122289635e97d12f2","null","","","","<span class='grid'><div> </div> <div> </div> <div> </div> <div class='red' style='background-position:100% 0%;margin-top:39px'></div> <div> </div> <div class='red' style='background-position:1300% 0%;margin-top:36px'></div> <div class='red' style='background-position:2000% 0%;margin-top:40px'></div> <div class='red' style='background-position:600% 0%;margin-top:28px'></div> <div class='red' style='background-position:1700% 0%;margin-top:47px'></div> <div> </div> <div class='red' style='background-position:1600% 0%;margin-top:46px'></div> <div class='red' style='background-position:500% 0%;margin-top:28px'></div> <div> </div> <div> </div> <div class='red' style='background-position:1400% 0%;margin-top:25px'></div> <div> </div> <div class='red' style='background-position:400% 0%;margin-top:31px'></div> <div class='red' style='background-position:800% 0%;margin-top:40px'></div> <div class='red' style='background-position:1900% 0%;margin-top:38px'></div></span>","null","stimulus","{""index"":6,""type"":""practice"",""color"":""red""}","","","","","","","","","","","","","","","","","","","","","","","","","",""
"image-slider-response_noButton","30","97704","0.0-30.0","62728a4122289635e97d12f2","1738","","","","img/red1.jpg,img/red2.jpg,img/red3.jpg,img/red4.jpg,img/red5.jpg,img/red6.jpg,img/red7.jpg,img/red8.jpg,img/red9.jpg,img/red10.jpg,img/red11.jpg,img/red12.jpg,img/red13.jpg,img/red14.jpg,img/red15.jpg,img/red16.jpg,img/red17.jpg,img/red18.jpg,img/red19.jpg,img/red20.jpg,img/red21.jpg,img/red22.jpg,img/red23.jpg,img/red24.jpg,img/red25.jpg,img/red26.jpg,img/red27.jpg,img/red28.jpg,img/red29.jpg,img/red30.jpg,img/red31.jpg,img/red32.jpg,img/red33.jpg,img/red34.jpg,img/red35.jpg,img/red36.jpg,img/red37.jpg,img/red38.jpg,img/red39.jpg,img/red40.jpg,img/red41.jpg,img/red42.jpg,img/red43.jpg,img/red44.jpg,img/red45.jpg,img/red46.jpg,img/red47.jpg,img/red48.jpg,img/red49.jpg,img/red50.jpg","","response","{""index"":7,""type"":""practice"",""color"":""red""}","image-slider-response_noButton","<p>what was the average redness of the array?</p>","1","50","0","function morphedScaleRed() {
    // defining a few helper functions
    function nrange(size, startAt = 0) {
      return [...Array(size).keys()].map(i => i + startAt);
    };
  
    function fillArray(value, len) {
      var arr = [];
      for (var i = 0; i < len; i++) {
        arr.push(value);
      }
      return arr;
    };
  
    function generateSlices(vWidth, nSlices) {
      var step = vWidth*0.6/(nSlices-2);
      var stepArray = fillArray(step,nSlices-2)
      stepArray.unshift(0.2*vWidth)
      stepArray.push(0.2*vWidth)
  
      var bounds = [];
      
      for (var i = 0; i < nSlices; i++) {
        if (i==0) {
          bounds.push([(i*stepArray[i]), (i*stepArray[i])+stepArray[i]])
        } else if (i>0 && i!=nSlices-1) {
          bounds.push([(i*stepArray[i]+0.2*vWidth), (i*stepArray[i])+stepArray[i]+0.2*vWidth])
        } else {
          bounds.push([(vWidth-0.2*vWidth), vWidth])  
        }
      };
      return bounds;
    };
    
    // start trial timer
    var startTime = (new Date()).getTime();
    // get trial data
    var trialData = jsPsych.currentTrial();
  
    // remove the picture scales and the slider
    $('.jspsych-image-slider-response_noButton-container').css(""visibility"", ""hidden"");
    $('img').remove();
    var imgScale = getScaleRed();
    
    // derive the letter of the image filenames
    var imgBase = imgScale[0].split('img/')[1].split('.jpg')[0].replace(/\d+/g, '');
    
    // split the number of the image filenames off from the rest of it
    var nScale = [];
    for (var i = 0; i < imgScale.length-1; i++) {
      var n = imgScale[i].split('img/')[1].split('.jpg')[0].split(imgBase)[1];
      nScale.push(n);
    };
    
    // calculate the element width, and slice it up into sections
    var vWidth = $(document).width();
    var nSlices = nScale.length;
    var slices = generateSlices(vWidth, nSlices);
  
    // setting up initial vertical line to start the mousemove functionality
    var vHeight = $(document).height()-8;
    var lineSlice = vWidth / 10;
    var vertLine = `<div style=""border-left:black;border-style:solid;margin-left:${lineSlice}px; height:${vHeight}px;width:0px;position:absolute;"" id=""vertLine""></div>`;
    var linePrompt = `<div id=""linePrompt""><div style=""font-size:50px;position:absolute;margin-left:${lineSlice*1.3}px;margin-top:${vHeight/2}px""></div><div style=""position:absolute;margin-left:${lineSlice*1.2}px;margin-top:${vHeight/2}px;z-index:5;"">Move mouse left of the line to begin</div></div>`;
    $("".jspsych-content-wrapper"").prepend(vertLine);
    $("".jspsych-content-wrapper"").prepend(linePrompt);
    
    // hide prompt until the trial is begun
    $('#jspsych-content > p').css(""visibility"", ""hidden"");
  
    // initialize the central image with the most neutral one (i.e. from
    // the middle of the scale) and set the image to be blurred
    var initialImage = imgScale[0];
    $('#jspsych-image-slider-response_noButton-stimulus').append(`<img src=""${initialImage}"" style=""filter:blur(4px);visibility:hidden;"" id=""changeable-image""/>`);
  
    // ADD VISUAL SCALE SHOWING MIN/MAX
    var scaleWidth = vWidth * 0.6;
    var scaleLeft = vWidth * 0.2;
    var scaleHtml = `
      <div id=""scale-container"" style=""position:absolute; bottom:120px; left:${scaleLeft}px; width:${scaleWidth}px; height:30px; background-color:rgba(220,220,220,0.7); border-radius:5px; display:none; z-index:10;"">
        <div style=""position:absolute; left:0px; width:2px; height:30px; background-color:black;""></div>
        <div style=""position:absolute; left:0px; top:32px; font-size:12px; color:black;"">Min (1)</div>
        <div style=""position:absolute; right:0px; width:2px; height:30px; background-color:black;""></div>
        <div style=""position:absolute; right:0px; top:32px; font-size:12px; color:black;"">Max (50)</div>
        <div id=""current-marker"" style=""position:absolute; left:0px; width:2px; height:30px; background-color:red; display:none;""></div>
      </div>
    `;
    $("".jspsych-content-wrapper"").append(scaleHtml);
  
    // workaround with a global variable
    window.__imageMouseOver = {
      lineSlice: lineSlice,
      slices: slices,
      nScale: nScale,
      imgBase: imgBase,
      startTime: startTime,
      trialData: trialData,
      sliceSelected: 0,
    };
    var __listenerBools = {};
  
    // define mousemove event listener that changes image
    function changeImg(event) {
      var mouseX = Math.floor(event.pageX);
      
      // Show the scale after interaction begins
      $(""#scale-container"").css(""display"", ""block"");
      
      // Update current marker position based on mouse position
      var scaleWidth = $(""#scale-container"").width();
      var relativePos = Math.max(0, Math.min(mouseX - scaleLeft, scaleWidth));
      var percentPos = (relativePos / scaleWidth) * 100;
      
      $(""#current-marker"").css({
        ""left"": `${relativePos}px`,
        ""display"": ""block""
      });
      
      for (var i = 0; i < __imageMouseOver.slices.length; i++) {
        // if mouse X position is within the bounds of the X axis slice,
        // change the image to one that is indexed to that slice
        if (mouseX >= __imageMouseOver.slices[i][0] && mouseX <= __imageMouseOver.slices[i][1]) {
          // capture which slice is selected
          __imageMouseOver.sliceSelected = i;
          // update img src to the picture that corresponds to that slice
          $('#changeable-image').attr('src', `img/${__imageMouseOver.imgBase}${__imageMouseOver.nScale[i]}.jpg`);
        }
      };
    };
    
    // define the click listener that ends trial
    function clickHandler(event) {
      if (__listenerBools['mousemove']) {
        // derive trial data
        var trialData = __imageMouseOver.trialData;
        var end_time = (new Date()).getTime();
        var rt = end_time - __imageMouseOver.startTime;
        trialData['rt'] = rt;
        trialData['stimulus_duration'] = rt;
        trialData['trial_duration'] = rt;
        trialData['imageSelected'] = `${__imageMouseOver.imgBase}${__imageMouseOver.nScale[__imageMouseOver.sliceSelected]}.jpg`
        trialData['indexSelected'] = __imageMouseOver.sliceSelected;
        // turn off listeners
        $(document).off('mousemove');
        $(document).off('click');
        // clean up variable namespaces
        delete window.__imageMouseOver
        delete __listenerBools;
        // clean up scale
        $(""#scale-container"").remove();
        // finish the trial with trial data
        jsPsych.finishTrial(trialData);
      };
    };
  
    function verticalLineInit(event) {
      var mouseX = Math.floor(event.pageX);
      if (mouseX <= __imageMouseOver.lineSlice) {
        $(""#vertLine"").remove();
        $(""#linePrompt"").remove();
        $(""#jspsych-image-slider-response_noButton-stimulus > img"").css({
          ""filter"":""blur(0px)"",
          ""visibility"": ""visible"",
        });
        $('#jspsych-content > p').css(""visibility"", ""visible"");
        __listenerBools['mousemove'] = true;
        // turn off THIS mouse move listener
        $(document).off(""mousemove"");
        // turn on the mouse move listener that changes the image
        $(document).mousemove(changeImg);
        // add mouse click listener
        $(document).on('click', clickHandler);
      };
    };
  
    // turn on the vertical line mouse move listener
    $(document).mousemove(verticalLineInit);
  }","[object Object]","0","","Continue","1738","1738","true","red10.jpg","9","avg","600","red","11","[20,6,4,8,5,17,16,1,19,13,14]","11.181818181818182","Three Giraffes standing next to each other.","8","","",""
"html-keyboard-response","31","98105","0.0-31.0","62728a4122289635e97d12f2","null","","","","<p style=""font-size: 48px;""> + </p>","null","fixation","","","","","","","","","","","","","","","","","","","","","","","","","","",""
"html-keyboard-response","32","99606","0.0-32.0","62728a4122289635e97d12f2","null","","","","<span class='grid'><div> </div> <div> </div> <div class='red' style='background-position:3900% 0%;margin-top:29px'></div> <div> </div> <div class='red' style='background-position:4400% 0%;margin-top:26px'></div> <div> </div> <div> </div> <div class='red' style='background-position:4500% 0%;margin-top:31px'></div> <div> </div> <div> </div> <div> </div> <div> </div> <div> </div> <div> </div> <div class='red' style='background-position:3100% 0%;margin-top:22px'></div></span>","null","stimulus","{""index"":7,""type"":""practice"",""color"":""red""}","","","","","","","","","","","","","","","","","","","","","","","","","",""
"image-slider-response_noButton","33","102352","0.0-33.0","62728a4122289635e97d12f2","2746","","","","img/red1.jpg,img/red2.jpg,img/red3.jpg,img/red4.jpg,img/red5.jpg,img/red6.jpg,img/red7.jpg,img/red8.jpg,img/red9.jpg,img/red10.jpg,img/red11.jpg,img/red12.jpg,img/red13.jpg,img/red14.jpg,img/red15.jpg,img/red16.jpg,img/red17.jpg,img/red18.jpg,img/red19.jpg,img/red20.jpg,img/red21.jpg,img/red22.jpg,img/red23.jpg,img/red24.jpg,img/red25.jpg,img/red26.jpg,img/red27.jpg,img/red28.jpg,img/red29.jpg,img/red30.jpg,img/red31.jpg,img/red32.jpg,img/red33.jpg,img/red34.jpg,img/red35.jpg,img/red36.jpg,img/red37.jpg,img/red38.jpg,img/red39.jpg,img/red40.jpg,img/red41.jpg,img/red42.jpg,img/red43.jpg,img/red44.jpg,img/red45.jpg,img/red46.jpg,img/red47.jpg,img/red48.jpg,img/red49.jpg,img/red50.jpg","","response","{""index"":8,""type"":""practice"",""color"":""red""}","image-slider-response_noButton","<p>what was the average redness of the array?</p>","1","50","0","function morphedScaleRed() {
    // defining a few helper functions
    function nrange(size, startAt = 0) {
      return [...Array(size).keys()].map(i => i + startAt);
    };
  
    function fillArray(value, len) {
      var arr = [];
      for (var i = 0; i < len; i++) {
        arr.push(value);
      }
      return arr;
    };
  
    function generateSlices(vWidth, nSlices) {
      var step = vWidth*0.6/(nSlices-2);
      var stepArray = fillArray(step,nSlices-2)
      stepArray.unshift(0.2*vWidth)
      stepArray.push(0.2*vWidth)
  
      var bounds = [];
      
      for (var i = 0; i < nSlices; i++) {
        if (i==0) {
          bounds.push([(i*stepArray[i]), (i*stepArray[i])+stepArray[i]])
        } else if (i>0 && i!=nSlices-1) {
          bounds.push([(i*stepArray[i]+0.2*vWidth), (i*stepArray[i])+stepArray[i]+0.2*vWidth])
        } else {
          bounds.push([(vWidth-0.2*vWidth), vWidth])  
        }
      };
      return bounds;
    };
    
    // start trial timer
    var startTime = (new Date()).getTime();
    // get trial data
    var trialData = jsPsych.currentTrial();
  
    // remove the picture scales and the slider
    $('.jspsych-image-slider-response_noButton-container').css(""visibility"", ""hidden"");
    $('img').remove();
    var imgScale = getScaleRed();
    
    // derive the letter of the image filenames
    var imgBase = imgScale[0].split('img/')[1].split('.jpg')[0].replace(/\d+/g, '');
    
    // split the number of the image filenames off from the rest of it
    var nScale = [];
    for (var i = 0; i < imgScale.length-1; i++) {
      var n = imgScale[i].split('img/')[1].split('.jpg')[0].split(imgBase)[1];
      nScale.push(n);
    };
    
    // calculate the element width, and slice it up into sections
    var vWidth = $(document).width();
    var nSlices = nScale.length;
    var slices = generateSlices(vWidth, nSlices);
  
    // setting up initial vertical line to start the mousemove functionality
    var vHeight = $(document).height()-8;
    var lineSlice = vWidth / 10;
    var vertLine = `<div style=""border-left:black;border-style:solid;margin-left:${lineSlice}px; height:${vHeight}px;width:0px;position:absolute;"" id=""vertLine""></div>`;
    var linePrompt = `<div id=""linePrompt""><div style=""font-size:50px;position:absolute;margin-left:${lineSlice*1.3}px;margin-top:${vHeight/2}px""></div><div style=""position:absolute;margin-left:${lineSlice*1.2}px;margin-top:${vHeight/2}px;z-index:5;"">Move mouse left of the line to begin</div></div>`;
    $("".jspsych-content-wrapper"").prepend(vertLine);
    $("".jspsych-content-wrapper"").prepend(linePrompt);
    
    // hide prompt until the trial is begun
    $('#jspsych-content > p').css(""visibility"", ""hidden"");
  
    // initialize the central image with the most neutral one (i.e. from
    // the middle of the scale) and set the image to be blurred
    var initialImage = imgScale[0];
    $('#jspsych-image-slider-response_noButton-stimulus').append(`<img src=""${initialImage}"" style=""filter:blur(4px);visibility:hidden;"" id=""changeable-image""/>`);
  
    // ADD VISUAL SCALE SHOWING MIN/MAX
    var scaleWidth = vWidth * 0.6;
    var scaleLeft = vWidth * 0.2;
    var scaleHtml = `
      <div id=""scale-container"" style=""position:absolute; bottom:120px; left:${scaleLeft}px; width:${scaleWidth}px; height:30px; background-color:rgba(220,220,220,0.7); border-radius:5px; display:none; z-index:10;"">
        <div style=""position:absolute; left:0px; width:2px; height:30px; background-color:black;""></div>
        <div style=""position:absolute; left:0px; top:32px; font-size:12px; color:black;"">Min (1)</div>
        <div style=""position:absolute; right:0px; width:2px; height:30px; background-color:black;""></div>
        <div style=""position:absolute; right:0px; top:32px; font-size:12px; color:black;"">Max (50)</div>
        <div id=""current-marker"" style=""position:absolute; left:0px; width:2px; height:30px; background-color:red; display:none;""></div>
      </div>
    `;
    $("".jspsych-content-wrapper"").append(scaleHtml);
  
    // workaround with a global variable
    window.__imageMouseOver = {
      lineSlice: lineSlice,
      slices: slices,
      nScale: nScale,
      imgBase: imgBase,
      startTime: startTime,
      trialData: trialData,
      sliceSelected: 0,
    };
    var __listenerBools = {};
  
    // define mousemove event listener that changes image
    function changeImg(event) {
      var mouseX = Math.floor(event.pageX);
      
      // Show the scale after interaction begins
      $(""#scale-container"").css(""display"", ""block"");
      
      // Update current marker position based on mouse position
      var scaleWidth = $(""#scale-container"").width();
      var relativePos = Math.max(0, Math.min(mouseX - scaleLeft, scaleWidth));
      var percentPos = (relativePos / scaleWidth) * 100;
      
      $(""#current-marker"").css({
        ""left"": `${relativePos}px`,
        ""display"": ""block""
      });
      
      for (var i = 0; i < __imageMouseOver.slices.length; i++) {
        // if mouse X position is within the bounds of the X axis slice,
        // change the image to one that is indexed to that slice
        if (mouseX >= __imageMouseOver.slices[i][0] && mouseX <= __imageMouseOver.slices[i][1]) {
          // capture which slice is selected
          __imageMouseOver.sliceSelected = i;
          // update img src to the picture that corresponds to that slice
          $('#changeable-image').attr('src', `img/${__imageMouseOver.imgBase}${__imageMouseOver.nScale[i]}.jpg`);
        }
      };
    };
    
    // define the click listener that ends trial
    function clickHandler(event) {
      if (__listenerBools['mousemove']) {
        // derive trial data
        var trialData = __imageMouseOver.trialData;
        var end_time = (new Date()).getTime();
        var rt = end_time - __imageMouseOver.startTime;
        trialData['rt'] = rt;
        trialData['stimulus_duration'] = rt;
        trialData['trial_duration'] = rt;
        trialData['imageSelected'] = `${__imageMouseOver.imgBase}${__imageMouseOver.nScale[__imageMouseOver.sliceSelected]}.jpg`
        trialData['indexSelected'] = __imageMouseOver.sliceSelected;
        // turn off listeners
        $(document).off('mousemove');
        $(document).off('click');
        // clean up variable namespaces
        delete window.__imageMouseOver
        delete __listenerBools;
        // clean up scale
        $(""#scale-container"").remove();
        // finish the trial with trial data
        jsPsych.finishTrial(trialData);
      };
    };
  
    function verticalLineInit(event) {
      var mouseX = Math.floor(event.pageX);
      if (mouseX <= __imageMouseOver.lineSlice) {
        $(""#vertLine"").remove();
        $(""#linePrompt"").remove();
        $(""#jspsych-image-slider-response_noButton-stimulus > img"").css({
          ""filter"":""blur(0px)"",
          ""visibility"": ""visible"",
        });
        $('#jspsych-content > p').css(""visibility"", ""visible"");
        __listenerBools['mousemove'] = true;
        // turn off THIS mouse move listener
        $(document).off(""mousemove"");
        // turn on the mouse move listener that changes the image
        $(document).mousemove(changeImg);
        // add mouse click listener
        $(document).on('click', clickHandler);
      };
    };
  
    // turn on the vertical line mouse move listener
    $(document).mousemove(verticalLineInit);
  }","[object Object]","0","","Continue","2746","2746","true","red36.jpg","35","avg","400","red","4","[44,31,39,45]","39.75","Three Giraffes standing next to each other.","9","","",""
"html-keyboard-response","34","102958","0.0-34.0","62728a4122289635e97d12f2","null","","","","<p style=""font-size: 48px;""> + </p>","null","fixation","","","","","","","","","","","","","","","","","","","","","","","","","","",""
"html-keyboard-response","35","104462","0.0-35.0","62728a4122289635e97d12f2","null","","","","<span class='grid'><div class='red' style='background-position:4000% 0%;margin-top:32px'></div> <div class='red' style='background-position:3600% 0%;margin-top:26px'></div> <div> </div> <div> </div> <div class='red' style='background-position:3900% 0%;margin-top:41px'></div> <div class='red' style='background-position:3700% 0%;margin-top:34px'></div> <div class='red' style='background-position:4100% 0%;margin-top:35px'></div> <div class='red' style='background-position:3800% 0%;margin-top:42px'></div> <div> </div> <div class='red' style='background-position:4300% 0%;margin-top:40px'></div> <div class='red' style='background-position:4500% 0%;margin-top:24px'></div> <div> </div> <div class='red' style='background-position:4600% 0%;margin-top:29px'></div> <div class='red' style='background-position:3500% 0%;margin-top:41px'></div> <div class='red' style='background-position:3200% 0%;margin-top:20px'></div> <div> </div> <div> </div> <div> </div> <div> </div></span>","null","stimulus","{""index"":8,""type"":""practice"",""color"":""red""}","","","","","","","","","","","","","","","","","","","","","","","","","",""
"image-slider-response_noButton","36","106948","0.0-36.0","62728a4122289635e97d12f2","2486","","","","img/red1.jpg,img/red2.jpg,img/red3.jpg,img/red4.jpg,img/red5.jpg,img/red6.jpg,img/red7.jpg,img/red8.jpg,img/red9.jpg,img/red10.jpg,img/red11.jpg,img/red12.jpg,img/red13.jpg,img/red14.jpg,img/red15.jpg,img/red16.jpg,img/red17.jpg,img/red18.jpg,img/red19.jpg,img/red20.jpg,img/red21.jpg,img/red22.jpg,img/red23.jpg,img/red24.jpg,img/red25.jpg,img/red26.jpg,img/red27.jpg,img/red28.jpg,img/red29.jpg,img/red30.jpg,img/red31.jpg,img/red32.jpg,img/red33.jpg,img/red34.jpg,img/red35.jpg,img/red36.jpg,img/red37.jpg,img/red38.jpg,img/red39.jpg,img/red40.jpg,img/red41.jpg,img/red42.jpg,img/red43.jpg,img/red44.jpg,img/red45.jpg,img/red46.jpg,img/red47.jpg,img/red48.jpg,img/red49.jpg,img/red50.jpg","","response","{""index"":9,""type"":""practice"",""color"":""red""}","image-slider-response_noButton","<p>what was the average redness of the array?</p>","1","50","0","function morphedScaleRed() {
    // defining a few helper functions
    function nrange(size, startAt = 0) {
      return [...Array(size).keys()].map(i => i + startAt);
    };
  
    function fillArray(value, len) {
      var arr = [];
      for (var i = 0; i < len; i++) {
        arr.push(value);
      }
      return arr;
    };
  
    function generateSlices(vWidth, nSlices) {
      var step = vWidth*0.6/(nSlices-2);
      var stepArray = fillArray(step,nSlices-2)
      stepArray.unshift(0.2*vWidth)
      stepArray.push(0.2*vWidth)
  
      var bounds = [];
      
      for (var i = 0; i < nSlices; i++) {
        if (i==0) {
          bounds.push([(i*stepArray[i]), (i*stepArray[i])+stepArray[i]])
        } else if (i>0 && i!=nSlices-1) {
          bounds.push([(i*stepArray[i]+0.2*vWidth), (i*stepArray[i])+stepArray[i]+0.2*vWidth])
        } else {
          bounds.push([(vWidth-0.2*vWidth), vWidth])  
        }
      };
      return bounds;
    };
    
    // start trial timer
    var startTime = (new Date()).getTime();
    // get trial data
    var trialData = jsPsych.currentTrial();
  
    // remove the picture scales and the slider
    $('.jspsych-image-slider-response_noButton-container').css(""visibility"", ""hidden"");
    $('img').remove();
    var imgScale = getScaleRed();
    
    // derive the letter of the image filenames
    var imgBase = imgScale[0].split('img/')[1].split('.jpg')[0].replace(/\d+/g, '');
    
    // split the number of the image filenames off from the rest of it
    var nScale = [];
    for (var i = 0; i < imgScale.length-1; i++) {
      var n = imgScale[i].split('img/')[1].split('.jpg')[0].split(imgBase)[1];
      nScale.push(n);
    };
    
    // calculate the element width, and slice it up into sections
    var vWidth = $(document).width();
    var nSlices = nScale.length;
    var slices = generateSlices(vWidth, nSlices);
  
    // setting up initial vertical line to start the mousemove functionality
    var vHeight = $(document).height()-8;
    var lineSlice = vWidth / 10;
    var vertLine = `<div style=""border-left:black;border-style:solid;margin-left:${lineSlice}px; height:${vHeight}px;width:0px;position:absolute;"" id=""vertLine""></div>`;
    var linePrompt = `<div id=""linePrompt""><div style=""font-size:50px;position:absolute;margin-left:${lineSlice*1.3}px;margin-top:${vHeight/2}px""></div><div style=""position:absolute;margin-left:${lineSlice*1.2}px;margin-top:${vHeight/2}px;z-index:5;"">Move mouse left of the line to begin</div></div>`;
    $("".jspsych-content-wrapper"").prepend(vertLine);
    $("".jspsych-content-wrapper"").prepend(linePrompt);
    
    // hide prompt until the trial is begun
    $('#jspsych-content > p').css(""visibility"", ""hidden"");
  
    // initialize the central image with the most neutral one (i.e. from
    // the middle of the scale) and set the image to be blurred
    var initialImage = imgScale[0];
    $('#jspsych-image-slider-response_noButton-stimulus').append(`<img src=""${initialImage}"" style=""filter:blur(4px);visibility:hidden;"" id=""changeable-image""/>`);
  
    // ADD VISUAL SCALE SHOWING MIN/MAX
    var scaleWidth = vWidth * 0.6;
    var scaleLeft = vWidth * 0.2;
    var scaleHtml = `
      <div id=""scale-container"" style=""position:absolute; bottom:120px; left:${scaleLeft}px; width:${scaleWidth}px; height:30px; background-color:rgba(220,220,220,0.7); border-radius:5px; display:none; z-index:10;"">
        <div style=""position:absolute; left:0px; width:2px; height:30px; background-color:black;""></div>
        <div style=""position:absolute; left:0px; top:32px; font-size:12px; color:black;"">Min (1)</div>
        <div style=""position:absolute; right:0px; width:2px; height:30px; background-color:black;""></div>
        <div style=""position:absolute; right:0px; top:32px; font-size:12px; color:black;"">Max (50)</div>
        <div id=""current-marker"" style=""position:absolute; left:0px; width:2px; height:30px; background-color:red; display:none;""></div>
      </div>
    `;
    $("".jspsych-content-wrapper"").append(scaleHtml);
  
    // workaround with a global variable
    window.__imageMouseOver = {
      lineSlice: lineSlice,
      slices: slices,
      nScale: nScale,
      imgBase: imgBase,
      startTime: startTime,
      trialData: trialData,
      sliceSelected: 0,
    };
    var __listenerBools = {};
  
    // define mousemove event listener that changes image
    function changeImg(event) {
      var mouseX = Math.floor(event.pageX);
      
      // Show the scale after interaction begins
      $(""#scale-container"").css(""display"", ""block"");
      
      // Update current marker position based on mouse position
      var scaleWidth = $(""#scale-container"").width();
      var relativePos = Math.max(0, Math.min(mouseX - scaleLeft, scaleWidth));
      var percentPos = (relativePos / scaleWidth) * 100;
      
      $(""#current-marker"").css({
        ""left"": `${relativePos}px`,
        ""display"": ""block""
      });
      
      for (var i = 0; i < __imageMouseOver.slices.length; i++) {
        // if mouse X position is within the bounds of the X axis slice,
        // change the image to one that is indexed to that slice
        if (mouseX >= __imageMouseOver.slices[i][0] && mouseX <= __imageMouseOver.slices[i][1]) {
          // capture which slice is selected
          __imageMouseOver.sliceSelected = i;
          // update img src to the picture that corresponds to that slice
          $('#changeable-image').attr('src', `img/${__imageMouseOver.imgBase}${__imageMouseOver.nScale[i]}.jpg`);
        }
      };
    };
    
    // define the click listener that ends trial
    function clickHandler(event) {
      if (__listenerBools['mousemove']) {
        // derive trial data
        var trialData = __imageMouseOver.trialData;
        var end_time = (new Date()).getTime();
        var rt = end_time - __imageMouseOver.startTime;
        trialData['rt'] = rt;
        trialData['stimulus_duration'] = rt;
        trialData['trial_duration'] = rt;
        trialData['imageSelected'] = `${__imageMouseOver.imgBase}${__imageMouseOver.nScale[__imageMouseOver.sliceSelected]}.jpg`
        trialData['indexSelected'] = __imageMouseOver.sliceSelected;
        // turn off listeners
        $(document).off('mousemove');
        $(document).off('click');
        // clean up variable namespaces
        delete window.__imageMouseOver
        delete __listenerBools;
        // clean up scale
        $(""#scale-container"").remove();
        // finish the trial with trial data
        jsPsych.finishTrial(trialData);
      };
    };
  
    function verticalLineInit(event) {
      var mouseX = Math.floor(event.pageX);
      if (mouseX <= __imageMouseOver.lineSlice) {
        $(""#vertLine"").remove();
        $(""#linePrompt"").remove();
        $(""#jspsych-image-slider-response_noButton-stimulus > img"").css({
          ""filter"":""blur(0px)"",
          ""visibility"": ""visible"",
        });
        $('#jspsych-content > p').css(""visibility"", ""visible"");
        __listenerBools['mousemove'] = true;
        // turn off THIS mouse move listener
        $(document).off(""mousemove"");
        // turn on the mouse move listener that changes the image
        $(document).mousemove(changeImg);
        // add mouse click listener
        $(document).on('click', clickHandler);
      };
    };
  
    // turn on the vertical line mouse move listener
